,Subject,Condition,Trial,Cue,Stimulus,Response,RT,Estimated class,Proba 0,Proba 1
0,pilot3,Cued,0,2,2,2,479,1,0.7760243480790546,0.22397565192094537
1,pilot3,Cued,1,1,1,1,562,1,0.9617953606248302,0.038204639375169866
2,pilot3,Cued,2,2,2,2,404,2,0.06084886967324099,0.939151130326759
3,pilot3,Cued,3,2,2,2,516,2,0.10731778072136411,0.8926822192786359
4,pilot3,Cued,4,2,1,1,564,2,0.21101787603985922,0.7889821239601408
5,pilot3,Cued,5,2,2,2,376,2,0.13625323305713832,0.8637467669428617
6,pilot3,Cued,6,1,1,1,325,1,0.9620336857097543,0.037966314290245634
7,pilot3,Cued,7,2,2,2,395,2,0.24771563677259223,0.7522843632274078
8,pilot3,Cued,8,1,1,1,356,1,0.8268829475698034,0.17311705243019657
9,pilot3,Cued,9,1,1,1,351,1,0.8316576964112191,0.16834230358878086
10,pilot3,Cued,10,1,1,1,385,1,0.5610538360086559,0.4389461639913441
11,pilot3,Cued,11,1,1,1,324,1,0.7949979572240837,0.20500204277591624
12,pilot3,Cued,12,1,1,1,259,1,0.8564200236472871,0.14357997635271288
13,pilot3,Cued,13,1,1,1,412,1,0.8588948958759888,0.14110510412401123
14,pilot3,Cued,14,2,2,2,386,1,0.7373803108032992,0.2626196891967008
15,pilot3,Cued,15,1,1,1,335,1,0.875331102139714,0.12466889786028601
16,pilot3,Cued,16,2,2,2,377,2,0.3291280204483924,0.6708719795516076
17,pilot3,Cued,17,1,1,1,325,1,0.7399190616370852,0.26008093836291474
18,pilot3,Cued,18,1,2,2,538,1,0.9406570793311996,0.059342920668800446
19,pilot3,Cued,19,2,2,2,568,2,0.15164370131583915,0.8483562986841608
20,pilot3,Cued,20,2,1,1,636,2,0.10371886096562932,0.8962811390343707
21,pilot3,Cued,21,1,1,1,534,1,0.8106837718088377,0.18931622819116234
22,pilot3,Cued,22,1,1,1,369,1,0.9826938278139412,0.017306172186058753
23,pilot3,Cued,23,1,1,1,360,1,0.9924744879084139,0.007525512091586129
24,pilot3,Cued,24,2,1,1,566,2,0.049401540695959256,0.9505984593040407
25,pilot3,Cued,25,1,1,1,403,1,0.9712311003939915,0.028768899606008532
26,pilot3,Cued,26,2,2,2,392,2,0.13697896440620172,0.8630210355937983
27,pilot3,Cued,27,2,2,2,592,2,0.2441200439795086,0.7558799560204914
28,pilot3,Cued,28,1,1,1,516,1,0.8974584418331504,0.10254155816684968
29,pilot3,Cued,29,1,1,1,386,1,0.8575801768325058,0.14241982316749427
30,pilot3,Cued,30,1,1,1,332,1,0.8722198807696131,0.12778011923038687
31,pilot3,Cued,31,1,1,1,431,1,0.8177140389707134,0.18228596102928665
32,pilot3,Cued,32,1,1,1,456,1,0.8582860326081692,0.14171396739183081
33,pilot3,Cued,33,1,2,2,607,2,0.4560503691660259,0.5439496308339741
34,pilot3,Cued,34,1,1,1,363,1,0.7692451471304699,0.23075485286953015
35,pilot3,Cued,35,2,2,2,409,1,0.532707291263933,0.46729270873606704
36,pilot3,Cued,36,2,2,2,440,2,0.20988415961936513,0.7901158403806349
37,pilot3,Cued,37,1,1,1,306,2,0.11197324946642129,0.8880267505335787
38,pilot3,Cued,38,1,1,1,373,1,0.6981073613815807,0.3018926386184193
39,pilot3,Cued,39,2,2,2,386,2,0.03737005443393904,0.962629945566061
40,pilot3,Cued,40,2,2,2,422,2,0.358446524351135,0.641553475648865
41,pilot3,Cued,41,2,2,2,433,2,0.04889936913616366,0.9511006308638363
42,pilot3,Cued,42,2,2,2,515,2,0.08356160987709582,0.9164383901229042
43,pilot3,Cued,43,2,1,1,442,2,0.30452620227762484,0.6954737977223752
44,pilot3,Cued,44,1,1,1,565,1,0.8665298287852353,0.13347017121476468
45,pilot3,Cued,45,1,1,1,438,1,0.9148711168780749,0.08512888312192515
46,pilot3,Cued,46,2,2,2,391,2,0.17262611823353946,0.8273738817664605
47,pilot3,Cued,47,2,2,2,390,2,0.11406700673525472,0.8859329932647453
48,pilot3,Cued,48,2,2,2,546,2,0.10766982954340432,0.8923301704565957
49,pilot3,Cued,49,1,1,1,356,1,0.8485193539711373,0.1514806460288627
50,pilot3,Cued,50,1,1,1,321,1,0.8676097560998065,0.13239024390019347
51,pilot3,Cued,51,1,1,1,550,1,0.8993067522612903,0.10069324773870969
52,pilot3,Cued,52,1,1,1,532,1,0.9683706010881628,0.031629398911837206
53,pilot3,Cued,53,1,1,1,306,1,0.5051511207280406,0.49484887927195936
54,pilot3,Cued,54,1,1,1,281,1,0.576776137777429,0.4232238622225711
55,pilot3,Cued,55,2,1,1,520,2,0.4249448205341426,0.5750551794658574
56,pilot3,Cued,56,1,1,1,279,1,0.9565358900154287,0.04346410998457131
57,pilot3,Cued,57,1,1,1,430,1,0.7074224692086235,0.29257753079137644
58,pilot3,Cued,58,2,2,2,379,2,0.35487637632306945,0.6451236236769305
59,pilot3,Cued,59,2,2,2,381,2,0.3407865212966318,0.6592134787033682
60,pilot3,Cued,60,2,1,1,454,2,0.45303498352555516,0.5469650164744448
61,pilot3,Cued,61,2,1,1,418,2,0.1859095465577677,0.8140904534422323
62,pilot3,Cued,62,1,1,1,397,1,0.8867294603339348,0.11327053966606519
63,pilot3,Cued,63,1,1,1,441,1,0.9028246044233996,0.09717539557660039
64,pilot3,Cued,64,2,2,2,394,2,0.0974944253573119,0.9025055746426881
65,pilot3,Cued,65,1,1,1,343,1,0.6235407495677128,0.3764592504322873
66,pilot3,Cued,66,1,1,1,298,1,0.582048892249459,0.417951107750541
67,pilot3,Cued,67,1,1,1,347,2,0.464387686097795,0.535612313902205
68,pilot3,Cued,68,2,2,2,368,2,0.16393053961907378,0.8360694603809262
69,pilot3,Cued,69,2,2,2,461,2,0.08838368381631723,0.9116163161836828
70,pilot3,Cued,70,1,1,1,299,1,0.9742375990907072,0.025762400909292868
71,pilot3,Cued,71,1,1,1,294,2,0.33884509137601126,0.6611549086239887
72,pilot3,Cued,72,2,2,2,605,2,0.494589734030909,0.505410265969091
73,pilot3,Cued,73,2,2,2,394,2,0.013978924158301154,0.9860210758416988
74,pilot3,Cued,74,1,1,1,526,1,0.6623525113947047,0.33764748860529525
75,pilot3,Cued,75,2,2,2,362,2,0.4670606636795719,0.5329393363204281
76,pilot3,Cued,76,1,1,1,294,1,0.6695562605025791,0.33044373949742084
77,pilot3,Cued,77,2,2,2,354,2,0.07732724929588164,0.9226727507041184
78,pilot3,Cued,78,2,2,2,464,2,0.062386787656738996,0.937613212343261
79,pilot3,Cued,79,1,1,1,370,1,0.8974694229756335,0.10253057702436652
80,pilot3,Cued,80,2,2,2,517,2,0.13915762771665108,0.8608423722833489
81,pilot3,Cued,81,2,1,1,548,2,0.06845040450168005,0.93154959549832
82,pilot3,Cued,82,2,2,2,385,2,0.4111254619851088,0.5888745380148912
83,pilot3,Cued,83,1,1,1,275,2,0.4904638892611747,0.5095361107388253
84,pilot3,Cued,84,1,2,2,660,1,0.6873774509903489,0.31262254900965114
85,pilot3,Cued,85,1,1,1,293,1,0.8233181073430711,0.1766818926569289
86,pilot3,Cued,86,2,2,2,399,2,0.23917527946542194,0.7608247205345781
87,pilot3,Cued,87,2,2,2,603,2,0.3230392834694238,0.6769607165305762
88,pilot3,Cued,88,2,2,2,398,2,0.14733838318108128,0.8526616168189187
89,pilot3,Cued,89,2,2,2,366,2,0.33238310419672834,0.6676168958032717
90,pilot3,Cued,90,1,1,1,353,1,0.812679519574045,0.1873204804259549
91,pilot3,Cued,91,1,1,1,334,1,0.6980677933775765,0.3019322066224234
92,pilot3,Cued,92,1,1,1,276,1,0.8755868836040558,0.12441311639594424
93,pilot3,Cued,93,2,2,2,346,2,0.0846698032489821,0.9153301967510179
94,pilot3,Cued,94,1,1,1,315,1,0.7623087717141883,0.23769122828581168
95,pilot3,Cued,95,2,1,1,538,2,0.07549416739009374,0.9245058326099063
96,pilot3,Cued,96,1,1,1,544,2,0.4189622343040288,0.5810377656959712
97,pilot3,Cued,97,1,1,1,357,1,0.8436293170555348,0.15637068294446524
98,pilot3,Cued,98,2,2,2,378,2,0.1707559824760837,0.8292440175239163
99,pilot3,Cued,99,2,2,2,558,2,0.14418399746151478,0.8558160025384852
100,pilot3,Cued,100,1,2,2,548,1,0.8546454260778036,0.1453545739221964
101,pilot3,Cued,101,2,2,2,377,2,0.2127925669708931,0.7872074330291069
102,pilot3,Cued,102,1,1,1,302,1,0.7448877720136957,0.25511222798630423
103,pilot3,Cued,103,1,1,1,508,1,0.9435874472973599,0.05641255270264013
104,pilot3,Cued,104,1,1,1,371,1,0.9061556708722294,0.09384432912777066
105,pilot3,Cued,105,2,2,2,405,2,0.23070023832554765,0.7692997616744524
106,pilot3,Cued,106,2,2,2,394,2,0.05491733741159632,0.9450826625884037
107,pilot3,Cued,107,2,2,2,378,2,0.06947234575295291,0.9305276542470471
108,pilot3,Cued,108,2,1,1,551,2,0.02587977873075198,0.974120221269248
109,pilot3,Cued,109,1,1,1,267,1,0.7755403633975375,0.22445963660246254
110,pilot3,Cued,110,1,2,2,628,1,0.9273122622240704,0.07268773777592964
111,pilot3,Cued,111,1,1,1,301,1,0.8676539775013241,0.13234602249867594
112,pilot3,Cued,112,1,1,1,491,1,0.8583350598487822,0.14166494015121783
113,pilot3,Cued,113,2,1,1,527,2,0.2793066139222573,0.7206933860777427
114,pilot3,Cued,114,1,2,2,512,1,0.8993902843596704,0.10060971564032957
115,pilot3,Cued,115,1,2,2,449,1,0.7900574584534515,0.20994254154654846
116,pilot3,Cued,116,1,1,1,610,1,0.5987835723723738,0.40121642762762627
117,pilot3,Cued,117,1,1,1,366,1,0.691181381572409,0.3088186184275909
118,pilot3,Cued,118,2,2,2,381,2,0.3343859327080002,0.6656140672919998
119,pilot3,Cued,119,2,2,2,482,2,0.05088878781743644,0.9491112121825636
120,pilot3,Cued,120,1,1,1,414,1,0.937800894598986,0.06219910540101403
121,pilot3,Cued,121,1,1,1,484,1,0.7416481889199553,0.25835181108004474
122,pilot3,Cued,122,1,1,1,364,1,0.8036775346083005,0.19632246539169954
123,pilot3,Cued,123,2,2,2,361,2,0.03665659343566485,0.9633434065643351
124,pilot3,Cued,124,2,1,1,542,2,0.052159832660100935,0.9478401673398991
125,pilot3,Cued,125,1,1,1,444,1,0.7389293233687318,0.26107067663126815
126,pilot3,Cued,126,2,2,2,367,2,0.1594166035958432,0.8405833964041568
127,pilot3,Cued,127,2,2,2,450,2,0.16964276669793343,0.8303572333020666
128,pilot3,Cued,128,2,2,2,428,2,0.09626888825664093,0.9037311117433591
129,pilot3,Cued,129,1,2,2,510,1,0.661301539368921,0.338698460631079
130,pilot3,Cued,130,2,2,2,476,1,0.8153290766146101,0.18467092338538996
131,pilot3,Cued,131,2,2,2,364,1,0.6242504852600209,0.3757495147399791
132,pilot3,Cued,132,2,2,2,402,2,0.4174935079687444,0.5825064920312556
133,pilot3,Cued,133,2,2,2,485,2,0.47746728513764825,0.5225327148623518
134,pilot3,Cued,134,2,2,2,435,1,0.8187311740913965,0.18126882590860355
135,pilot3,Cued,135,1,2,2,501,1,0.645778955233637,0.3542210447663629
136,pilot3,Cued,136,2,2,2,378,2,0.3985990264591637,0.6014009735408363
137,pilot3,Cued,137,2,2,2,424,2,0.034517583725685586,0.9654824162743144
138,pilot3,Cued,138,1,1,1,458,1,0.7778175191470321,0.2221824808529679
139,pilot3,Cued,139,2,2,2,379,2,0.04895892599587626,0.9510410740041237
140,pilot3,Cued,140,1,1,1,311,1,0.737121965841079,0.262878034158921
141,pilot3,Cued,141,2,2,2,370,2,0.25648918564956125,0.7435108143504388
142,pilot3,Cued,142,2,2,2,436,2,0.029066538990131896,0.9709334610098681
143,pilot3,Cued,143,2,2,2,435,2,0.15489040334324455,0.8451095966567554
144,pilot3,Cued,144,2,1,2,404,2,0.09956275403848558,0.9004372459615144
145,pilot3,Cued,145,1,1,1,327,1,0.8741853374784176,0.1258146625215823
146,pilot3,Cued,146,2,2,2,397,2,0.330518255957851,0.669481744042149
147,pilot3,Cued,147,1,1,1,344,1,0.8430310005091667,0.15696899949083332
148,pilot3,Cued,148,1,2,2,523,1,0.8905525194881858,0.10944748051181413
149,pilot3,Cued,149,1,2,2,479,1,0.8713170092461285,0.12868299075387146
150,pilot3,Cued,150,2,2,2,367,2,0.3645694967602877,0.6354305032397123
151,pilot3,Cued,151,2,1,1,488,2,0.07285459319198517,0.9271454068080148
152,pilot3,Cued,152,2,2,2,455,2,0.05359522777208059,0.9464047722279194
153,pilot3,Cued,153,1,1,1,273,1,0.554826024844822,0.44517397515517804
154,pilot3,Cued,154,2,2,2,553,2,0.2289754645433063,0.7710245354566937
155,pilot3,Cued,155,2,2,2,383,2,0.2879427289870585,0.7120572710129415
156,pilot3,Cued,156,1,1,1,457,1,0.6305073927456841,0.36949260725431593
157,pilot3,Cued,157,1,1,1,493,1,0.9362994066524879,0.06370059334751216
158,pilot3,Cued,158,2,2,2,420,2,0.2762276984645399,0.7237723015354601
159,pilot3,Cued,159,1,1,1,489,1,0.8346893189684158,0.1653106810315842
160,pilot3,Cued,160,1,1,1,344,1,0.59553572885529,0.40446427114470995
161,pilot3,Cued,161,1,1,1,309,1,0.890206776548145,0.10979322345185503
162,pilot3,Cued,162,1,1,1,351,1,0.956843355107815,0.043156644892184945
163,pilot3,Cued,163,1,2,2,633,1,0.8135477490537122,0.18645225094628784
164,pilot3,Cued,164,2,2,2,483,1,0.751605914119914,0.24839408588008602
165,pilot3,Cued,165,2,2,2,451,2,0.02154238605728309,0.9784576139427169
166,pilot3,Cued,166,2,1,1,607,2,0.049995737446582145,0.9500042625534179
167,pilot3,Cued,167,1,1,1,296,2,0.49300381930218895,0.506996180697811
168,pilot3,Cued,168,1,1,1,328,1,0.8149917128768532,0.18500828712314676
169,pilot3,Cued,169,2,2,2,406,2,0.17610205240273602,0.823897947597264
170,pilot3,Cued,170,1,1,1,586,2,0.316534266183218,0.683465733816782
171,pilot3,Cued,171,2,2,2,399,2,0.04602301672654907,0.9539769832734509
172,pilot3,Cued,172,2,2,2,434,2,0.10731597258106307,0.8926840274189369
173,pilot3,Cued,173,1,1,1,317,2,0.4194070079709711,0.5805929920290289
174,pilot3,Cued,174,2,2,2,725,2,0.10498870087097423,0.8950112991290258
175,pilot3,Cued,175,1,1,1,515,1,0.5769142471045474,0.4230857528954525
176,pilot3,Cued,176,1,2,2,513,1,0.9013467349666318,0.09865326503336824
177,pilot3,Cued,177,1,1,1,341,1,0.84527346653501,0.15472653346499002
178,pilot3,Cued,178,1,1,1,512,1,0.8068102405521467,0.19318975944785327
179,pilot3,Cued,179,2,1,1,398,2,0.05527152000717417,0.9447284799928258
180,pilot3,Cued,180,1,1,1,388,1,0.8893724956952744,0.11062750430472554
181,pilot3,Cued,181,1,1,1,301,2,0.4258567981481671,0.5741432018518329
182,pilot3,Cued,182,2,1,1,483,2,0.07373552671952333,0.9262644732804767
183,pilot3,Cued,183,2,2,2,392,2,0.40879868932978325,0.5912013106702168
184,pilot3,Cued,184,2,2,2,391,2,0.3458846165488828,0.6541153834511172
185,pilot3,Cued,185,2,2,2,361,2,0.0328656854368069,0.9671343145631931
186,pilot3,Cued,186,1,1,1,302,1,0.8641477358845687,0.13585226411543125
187,pilot3,Cued,187,1,2,2,485,1,0.9245546003261469,0.07544539967385308
188,pilot3,Cued,188,1,2,2,479,1,0.906383891307879,0.09361610869212095
189,pilot3,Cued,189,1,1,1,335,1,0.7278982720515152,0.27210172794848475
190,pilot3,Cued,190,1,1,1,331,1,0.6797206066818815,0.32027939331811855
191,pilot3,Cued,191,1,1,1,324,1,0.5906681932965772,0.4093318067034229
192,pilot3,Cued,192,2,2,2,465,2,0.11315574998121902,0.886844250018781
193,pilot3,Cued,193,2,2,2,386,2,0.10917545159357889,0.8908245484064211
194,pilot3,Cued,194,1,2,2,396,1,0.8354217911201303,0.1645782088798698
195,pilot3,Cued,195,2,2,2,356,2,0.11345065997405457,0.8865493400259454
196,pilot3,Cued,196,2,1,2,332,2,0.1589155508421728,0.8410844491578272
197,pilot3,Cued,197,2,1,1,481,2,0.0047373746109712345,0.9952626253890288
198,pilot3,Cued,198,1,1,1,433,1,0.6034369495820209,0.3965630504179791
199,pilot3,Cued,199,1,1,1,571,1,0.8431650525583271,0.15683494744167292
200,pilot3,Cued,200,1,2,2,515,1,0.7102012722704782,0.2897987277295218
201,pilot3,Cued,201,2,2,2,409,2,0.057360580566500285,0.9426394194334997
202,pilot3,Cued,202,1,1,1,362,1,0.9369353282938644,0.06306467170613556
203,pilot3,Cued,203,2,2,2,415,2,0.07053086065441727,0.9294691393455827
204,pilot3,Cued,204,1,1,1,370,1,0.7733623419736415,0.22663765802635846
205,pilot3,Cued,205,1,1,1,339,1,0.7347978271592224,0.2652021728407776
206,pilot3,Cued,206,2,2,2,509,2,0.46164061815555535,0.5383593818444447
207,pilot3,Cued,207,2,2,2,394,1,0.6476521409408811,0.35234785905911886
208,pilot3,Cued,208,2,2,2,382,2,0.22720750225046638,0.7727924977495336
209,pilot3,Cued,209,2,2,2,400,2,0.17214152174048514,0.8278584782595149
210,pilot3,Cued,210,1,1,1,594,1,0.5391168973943785,0.46088310260562143
211,pilot3,Cued,211,1,1,1,307,1,0.5993178441390952,0.40068215586090483
212,pilot3,Cued,212,2,1,1,493,2,0.40201063938660186,0.5979893606133981
213,pilot3,Cued,213,1,1,1,357,1,0.8401762142187453,0.15982378578125467
214,pilot3,Cued,214,1,1,1,355,1,0.642293596585589,0.35770640341441096
215,pilot3,Cued,215,2,2,2,450,2,0.0600302479973821,0.9399697520026179
216,pilot3,Cued,216,1,1,1,465,1,0.932701077361679,0.06729892263832105
217,pilot3,Cued,217,1,2,2,529,1,0.9354932140698167,0.0645067859301833
218,pilot3,Cued,218,1,1,1,384,1,0.8701572674687452,0.12984273253125475
219,pilot3,Cued,219,2,2,2,533,2,0.034040389382806846,0.9659596106171932
220,pilot3,Cued,220,1,1,1,482,1,0.8879065469673656,0.1120934530326344
221,pilot3,Cued,221,2,2,2,474,1,0.5273350766153952,0.47266492338460475
222,pilot3,Cued,222,2,2,2,442,2,0.25729322877524485,0.7427067712247551
223,pilot3,Cued,223,2,2,2,401,2,0.45606129248533656,0.5439387075146634
224,pilot3,Cued,224,2,2,2,394,2,0.41389713194869504,0.586102868051305
225,pilot3,Cued,225,2,2,2,437,1,0.6670779300249211,0.3329220699750789
226,pilot3,Cued,226,2,2,2,447,1,0.5036251492631736,0.4963748507368264
227,pilot3,Cued,227,2,2,2,785,2,0.17801262517036132,0.8219873748296387
228,pilot3,Cued,228,2,1,1,482,2,0.03733217096715469,0.9626678290328453
229,pilot3,Cued,229,1,2,2,502,1,0.7262374827628048,0.27376251723719525
230,pilot3,Cued,230,2,2,2,380,2,0.10017976017760444,0.8998202398223956
231,pilot3,Cued,231,2,2,2,409,2,0.1754041784210465,0.8245958215789535
232,pilot3,Cued,232,2,2,2,395,2,0.11724340515646803,0.882756594843532
233,pilot3,Cued,233,1,1,1,341,1,0.7676314922271905,0.23236850777280948
234,pilot3,Cued,234,2,2,2,394,1,0.786229991253698,0.21377000874630203
235,pilot3,Cued,235,2,2,2,401,2,0.3383797699298352,0.6616202300701648
236,pilot3,Cued,236,2,2,2,455,2,0.2850902480735876,0.7149097519264124
237,pilot3,Cued,237,1,1,1,374,1,0.8407677108758422,0.15923228912415774
238,pilot3,Cued,238,1,1,1,300,1,0.7779462456771182,0.22205375432288177
239,pilot3,Cued,239,1,1,1,283,1,0.7221684753075506,0.2778315246924495
0,136,Cued,0,2,2,2,596,2,0.3881724813521352,0.6118275186478648
1,136,Cued,1,2,2,2,488,2,0.19177480356541232,0.8082251964345877
2,136,Cued,2,1,1,1,410,1,0.9533753814856358,0.04662461851436416
3,136,Cued,3,1,2,2,477,1,0.9081488019941079,0.09185119800589213
4,136,Cued,4,1,1,1,454,1,0.9407132592778764,0.059286740722123595
5,136,Cued,5,2,2,2,447,2,0.14758602946681132,0.8524139705331887
6,136,Cued,6,1,1,1,374,1,0.7538949435024942,0.2461050564975058
7,136,Cued,7,1,1,1,451,1,0.8495773513505671,0.15042264864943292
8,136,Cued,8,1,1,1,732,1,0.7209058439058499,0.2790941560941501
9,136,Cued,9,2,2,2,542,2,0.3159742657829657,0.6840257342170343
10,136,Cued,10,2,2,2,541,2,0.09790981105553487,0.9020901889444651
11,136,Cued,11,2,2,2,466,2,0.4680893994667015,0.5319106005332985
12,136,Cued,12,2,2,2,497,2,0.04149469888419677,0.9585053011158032
13,136,Cued,13,2,2,2,488,2,0.36919027395548365,0.6308097260445164
14,136,Cued,14,2,2,2,453,1,0.5174897636299751,0.4825102363700249
15,136,Cued,15,2,2,2,509,2,0.03746775670207492,0.9625322432979251
16,136,Cued,16,2,2,2,515,2,0.098692103975898,0.901307896024102
17,136,Cued,17,1,1,1,355,1,0.801087251073642,0.19891274892635802
18,136,Cued,18,2,2,2,457,2,0.4777563377517142,0.5222436622482858
19,136,Cued,19,1,1,1,394,1,0.8219493035716784,0.17805069642832158
20,136,Cued,20,1,2,2,514,1,0.7922373782877081,0.20776262171229182
21,136,Cued,21,2,2,2,833,2,0.10912538507558756,0.8908746149244124
22,136,Cued,22,2,1,1,514,2,0.11534152194309644,0.8846584780569036
23,136,Cued,23,1,1,1,465,1,0.9615866967200886,0.03841330327991139
24,136,Cued,24,1,1,1,442,1,0.9348127875345716,0.06518721246542832
25,136,Cued,25,2,2,2,433,2,0.11043848311139848,0.8895615168886015
26,136,Cued,26,1,1,1,747,1,0.8746945599233591,0.12530544007664096
27,136,Cued,27,2,2,2,448,2,0.14149719121614002,0.85850280878386
28,136,Cued,28,2,2,2,473,2,0.3394710824027747,0.6605289175972253
29,136,Cued,29,1,1,1,410,1,0.777465699789111,0.22253430021088905
30,136,Cued,30,2,2,2,476,2,0.0438137465035463,0.9561862534964537
31,136,Cued,31,1,2,2,709,1,0.6683729175407295,0.33162708245927053
32,136,Cued,32,2,2,2,397,2,0.030212348473004913,0.9697876515269951
33,136,Cued,33,1,1,1,449,1,0.7491702691108054,0.2508297308891946
34,136,Cued,34,2,2,2,475,2,0.22551681133205514,0.7744831886679449
35,136,Cued,35,1,2,2,529,1,0.8028317077615097,0.19716829223849033
36,136,Cued,36,1,1,1,400,1,0.57568779056721,0.42431220943278997
37,136,Cued,37,2,1,1,506,1,0.5919718102114897,0.40802818978851035
38,136,Cued,38,1,1,1,442,1,0.7930155959535794,0.20698440404642057
39,136,Cued,39,2,2,2,485,2,0.2752515515079238,0.7247484484920762
40,136,Cued,40,2,2,2,509,1,0.5297490023877298,0.4702509976122702
41,136,Cued,41,2,2,2,492,2,0.024283504912899212,0.9757164950871008
42,136,Cued,42,1,1,1,588,2,0.48119990781746946,0.5188000921825305
43,136,Cued,43,2,2,2,627,2,0.23597907997920464,0.7640209200207954
44,136,Cued,44,1,1,1,616,1,0.9771837406556642,0.022816259344335836
45,136,Cued,45,2,2,2,497,2,0.3852478725412626,0.6147521274587374
46,136,Cued,46,1,1,1,544,1,0.524763027629405,0.47523697237059503
47,136,Cued,47,1,1,1,565,2,0.4667813712947545,0.5332186287052455
48,136,Cued,48,2,1,1,547,2,0.22464294766558823,0.7753570523344118
49,136,Cued,49,1,1,1,449,1,0.9774556648485776,0.0225443351514224
50,136,Cued,50,2,2,2,548,2,0.21908949735220162,0.7809105026477984
51,136,Cued,51,2,2,2,539,2,0.44963885906640566,0.5503611409335943
52,136,Cued,52,2,2,2,537,2,0.13416850370355005,0.86583149629645
53,136,Cued,53,2,2,2,518,2,0.2817305994031909,0.7182694005968091
54,136,Cued,54,1,1,1,493,1,0.7923274903064346,0.20767250969356546
55,136,Cued,55,2,1,1,443,2,0.08268956844868702,0.917310431551313
56,136,Cued,56,1,1,1,478,1,0.6178867495133576,0.38211325048664235
57,136,Cued,57,1,1,1,447,1,0.5962028778219322,0.4037971221780679
58,136,Cued,58,2,2,2,483,2,0.09898158773859345,0.9010184122614066
59,136,Cued,59,1,1,1,442,1,0.8497426761838712,0.15025732381612875
60,136,Cued,60,1,2,2,639,1,0.6598432112492172,0.34015678875078276
61,136,Cued,61,1,1,1,417,1,0.6092685782883496,0.3907314217116505
62,136,Cued,62,1,1,1,451,1,0.7240540623862483,0.27594593761375175
63,136,Cued,63,1,2,2,511,1,0.8254758743504349,0.17452412564956504
64,136,Cued,64,1,1,1,435,1,0.9779630214194069,0.022036978580593097
65,136,Cued,65,1,1,1,471,1,0.8646793382987557,0.13532066170124438
66,136,Cued,66,2,2,2,521,2,0.3292323137582809,0.6707676862417191
67,136,Cued,67,1,1,1,443,1,0.7727167608374745,0.22728323916252544
68,136,Cued,68,2,1,1,631,2,0.20419105992594688,0.7958089400740531
69,136,Cued,69,2,2,2,560,2,0.19812154202536025,0.8018784579746397
70,136,Cued,70,1,1,1,453,1,0.6902260170295123,0.3097739829704877
71,136,Cued,71,1,1,1,405,2,0.42188972418217385,0.5781102758178261
72,136,Cued,72,1,1,1,416,1,0.7399339216018311,0.26006607839816887
73,136,Cued,73,1,1,1,452,1,0.8858428939901054,0.11415710600989461
74,136,Cued,74,1,1,1,452,1,0.6831666427849241,0.3168333572150759
75,136,Cued,75,1,2,2,665,1,0.9261719639782129,0.07382803602178716
76,136,Cued,76,1,1,1,385,1,0.8655658931486824,0.13443410685131763
77,136,Cued,77,1,1,1,442,1,0.5689913733511276,0.4310086266488724
78,136,Cued,78,1,1,1,443,1,0.6654032171419146,0.3345967828580854
79,136,Cued,79,2,2,2,477,2,0.4747367813221174,0.5252632186778826
80,136,Cued,80,1,1,1,406,1,0.8462836535405253,0.15371634645947477
81,136,Cued,81,1,2,2,474,1,0.9153843854927295,0.08461561450727047
82,136,Cued,82,2,1,1,605,1,0.5407910467278418,0.4592089532721582
83,136,Cued,83,2,2,2,504,2,0.045861164471932,0.954138835528068
84,136,Cued,84,1,1,1,386,1,0.715313175211111,0.2846868247888889
85,136,Cued,85,1,1,1,578,1,0.8094603926347793,0.1905396073652207
86,136,Cued,86,1,1,1,491,1,0.8679946262133987,0.13200537378660124
87,136,Cued,87,2,1,1,484,2,0.018416907224090062,0.9815830927759099
88,136,Cued,88,2,2,2,700,2,0.29471919904828225,0.7052808009517177
89,136,Cued,89,2,2,2,619,2,0.10075549022066044,0.8992445097793396
90,136,Cued,90,1,1,1,414,1,0.5545685975352687,0.44543140246473134
91,136,Cued,91,2,1,1,496,2,0.0593524302583045,0.9406475697416955
92,136,Cued,92,2,2,2,572,2,0.4288365574727745,0.5711634425272255
93,136,Cued,93,1,1,1,673,2,0.30775513183674075,0.6922448681632593
94,136,Cued,94,1,1,1,442,2,0.38297607430483505,0.617023925695165
95,136,Cued,95,1,1,1,427,1,0.9174268079853198,0.08257319201468018
96,136,Cued,96,2,2,2,565,2,0.20881975582743384,0.7911802441725662
97,136,Cued,97,1,1,1,410,1,0.8556965663946464,0.1443034336053536
98,136,Cued,98,1,1,1,414,1,0.9338058475861717,0.06619415241382831
99,136,Cued,99,2,2,2,590,2,0.2604614285243041,0.7395385714756959
100,136,Cued,100,1,1,1,386,1,0.9276257433299488,0.07237425667005119
101,136,Cued,101,2,2,2,497,1,0.6023297138910632,0.39767028610893684
102,136,Cued,102,2,2,2,528,2,0.16489523992349142,0.8351047600765086
103,136,Cued,103,2,2,2,647,2,0.1856325263602423,0.8143674736397577
104,136,Cued,104,1,1,1,382,1,0.8084469586882287,0.1915530413117713
105,136,Cued,105,1,1,1,401,1,0.996728438683797,0.003271561316202954
106,136,Cued,106,2,2,2,491,2,0.07086421382863373,0.9291357861713663
107,136,Cued,107,1,1,1,458,1,0.7511286306765389,0.2488713693234611
108,136,Cued,108,2,2,2,459,2,0.009411734348359402,0.9905882656516406
109,136,Cued,109,2,2,2,575,2,0.2217277848563587,0.7782722151436413
110,136,Cued,110,1,1,1,665,1,0.8514124573302524,0.14858754266974758
111,136,Cued,111,2,2,2,498,1,0.6128092915826822,0.38719070841731784
112,136,Cued,112,1,1,1,374,1,0.8175056635667246,0.18249433643327545
113,136,Cued,113,1,1,1,635,1,0.6036194063133381,0.3963805936866619
114,136,Cued,114,2,1,1,593,2,0.07256351055721422,0.9274364894427858
115,136,Cued,115,2,1,1,766,2,0.40647812613470546,0.5935218738652945
116,136,Cued,116,1,1,1,443,1,0.7305669395465347,0.26943306045346527
117,136,Cued,117,2,2,2,550,2,0.4095522859082187,0.5904477140917813
118,136,Cued,118,2,2,2,435,2,0.05490534330390595,0.945094656696094
119,136,Cued,119,2,1,1,445,2,0.10101300779774214,0.8989869922022579
120,136,Cued,120,2,2,2,430,2,0.29840697793982285,0.7015930220601772
121,136,Cued,121,1,2,2,656,1,0.8108350458082575,0.18916495419174253
122,136,Cued,122,2,2,2,488,2,0.46718143058853057,0.5328185694114694
123,136,Cued,123,1,1,1,433,1,0.8249564010813566,0.17504359891864335
124,136,Cued,124,2,2,2,488,2,0.020866418777495177,0.9791335812225048
125,136,Cued,125,2,1,1,399,2,0.012447883455644848,0.9875521165443552
126,136,Cued,126,1,2,2,487,1,0.8289999436452196,0.17100005635478038
127,136,Cued,127,1,2,2,448,2,0.4941903035201486,0.5058096964798514
128,136,Cued,128,2,2,2,531,2,0.0874283891011669,0.9125716108988331
129,136,Cued,129,2,2,2,451,2,0.21474844744601507,0.7852515525539849
130,136,Cued,130,2,2,2,465,2,0.08459751418011774,0.9154024858198823
131,136,Cued,131,2,2,2,472,2,0.05927013392402325,0.9407298660759768
132,136,Cued,132,1,1,1,475,1,0.7506737462848039,0.24932625371519615
133,136,Cued,133,1,1,1,434,1,0.7359953921774773,0.2640046078225226
134,136,Cued,134,1,1,1,468,1,0.6109487757058536,0.3890512242941464
135,136,Cued,135,1,1,1,510,2,0.27196890707996757,0.7280310929200324
136,136,Cued,136,1,2,2,473,1,0.709791485140102,0.29020851485989796
137,136,Cued,137,2,2,2,473,2,0.37275163099088204,0.627248369009118
138,136,Cued,138,1,1,1,426,2,0.488280071003812,0.511719928996188
139,136,Cued,139,1,1,1,484,1,0.8980359871504936,0.10196401284950636
140,136,Cued,140,2,2,2,517,2,0.4128600909517073,0.5871399090482927
141,136,Cued,141,2,2,2,520,2,0.1130092807901314,0.8869907192098686
142,136,Cued,142,1,1,1,451,1,0.785642392440144,0.21435760755985603
143,136,Cued,143,1,2,2,458,1,0.893297991522628,0.10670200847737199
144,136,Cued,144,1,1,1,450,1,0.9857651360342147,0.014234863965785341
145,136,Cued,145,1,1,1,451,1,0.8412149117074625,0.1587850882925375
146,136,Cued,146,2,2,2,477,1,0.6015839804646906,0.39841601953530936
147,136,Cued,147,2,2,2,469,2,0.26708463695237195,0.732915363047628
148,136,Cued,148,2,2,2,478,2,0.3647770626946406,0.6352229373053594
149,136,Cued,149,1,1,1,519,1,0.976805413149844,0.023194586850155983
150,136,Cued,150,1,1,1,438,1,0.9892203683355406,0.010779631664459392
151,136,Cued,151,1,1,1,447,1,0.5195754862119348,0.4804245137880651
152,136,Cued,152,2,2,2,470,2,0.4210730608784343,0.5789269391215657
153,136,Cued,153,2,2,2,556,2,0.1440030789854626,0.8559969210145374
154,136,Cued,154,1,1,1,392,1,0.5418468016817937,0.45815319831820633
155,136,Cued,155,2,2,2,451,2,0.37111926653637795,0.628880733463622
156,136,Cued,156,1,1,1,444,1,0.9358739865963682,0.06412601340363176
157,136,Cued,157,1,1,1,502,1,0.7372451401713925,0.26275485982860747
158,136,Cued,158,2,2,2,465,2,0.23202768109658223,0.7679723189034178
159,136,Cued,159,1,1,1,418,1,0.7325751442559381,0.267424855744062
160,136,Cued,160,2,2,2,445,2,0.1011369968967929,0.8988630031032071
161,136,Cued,161,2,1,1,887,2,0.39721106503493997,0.60278893496506
162,136,Cued,162,1,2,2,503,1,0.8031869565826061,0.19681304341739392
163,136,Cued,163,1,1,1,441,2,0.40562125765408796,0.594378742345912
164,136,Cued,164,1,1,1,465,1,0.6357295210089977,0.3642704789910023
165,136,Cued,165,1,1,1,441,1,0.7058660211722656,0.2941339788277344
166,136,Cued,166,2,1,1,550,2,0.0850850247922681,0.9149149752077319
167,136,Cued,167,2,2,2,514,2,0.4943471526780322,0.5056528473219678
168,136,Cued,168,2,2,2,494,2,0.18042969952933474,0.8195703004706653
169,136,Cued,169,2,2,2,454,2,0.34704492153722477,0.6529550784627752
170,136,Cued,170,2,2,2,494,2,0.09675003956344652,0.9032499604365535
171,136,Cued,171,2,2,2,492,2,0.21289566698416884,0.7871043330158312
172,136,Cued,172,2,2,2,527,2,0.03922019790405418,0.9607798020959458
173,136,Cued,173,2,2,2,566,2,0.11213445639928254,0.8878655436007175
174,136,Cued,174,2,2,2,605,2,0.22129085711416185,0.7787091428858381
175,136,Cued,175,1,1,1,603,1,0.6803512023297158,0.31964879767028426
176,136,Cued,176,2,1,1,476,2,0.4228390442303741,0.5771609557696259
177,136,Cued,177,2,1,1,516,2,0.12114996407587153,0.8788500359241285
178,136,Cued,178,2,2,2,603,2,0.30527184237800054,0.6947281576219995
179,136,Cued,179,1,1,1,657,1,0.9308281840921547,0.06917181590784523
180,136,Cued,180,2,2,2,472,2,0.2625610467167122,0.7374389532832878
181,136,Cued,181,1,2,2,455,1,0.9347119016108878,0.06528809838911225
182,136,Cued,182,1,1,1,465,1,0.6065117120729842,0.3934882879270158
183,136,Cued,183,2,2,2,470,2,0.16529505275689726,0.8347049472431027
184,136,Cued,184,2,2,2,514,2,0.2881595794343096,0.7118404205656904
185,136,Cued,185,2,2,2,497,1,0.5132607761242438,0.48673922387575624
186,136,Cued,186,2,2,2,449,2,0.1320992111725976,0.8679007888274024
187,136,Cued,187,2,2,2,578,2,0.08623438903504088,0.9137656109649591
188,136,Cued,188,1,1,1,460,1,0.770023752160353,0.22997624783964699
189,136,Cued,189,1,1,1,477,1,0.8059872194241475,0.19401278057585247
190,136,Cued,190,1,1,1,491,1,0.6247316363641188,0.37526836363588123
191,136,Cued,191,1,2,2,644,1,0.5081946673550313,0.49180533264496873
192,136,Cued,192,2,2,2,569,2,0.153887284062997,0.846112715937003
193,136,Cued,193,1,2,1,445,1,0.837558048552266,0.16244195144773405
194,136,Cued,194,1,1,1,665,1,0.5768262044392579,0.4231737955607421
195,136,Cued,195,1,1,1,519,2,0.34595450831485,0.65404549168515
196,136,Cued,196,2,2,2,481,2,0.4233742717170277,0.5766257282829723
197,136,Cued,197,1,1,1,609,1,0.5690363474899018,0.43096365251009816
198,136,Cued,198,2,2,2,473,2,0.1895997181479716,0.8104002818520284
199,136,Cued,199,2,2,2,430,2,0.24833391591070242,0.7516660840892976
200,136,Cued,200,1,1,1,568,2,0.382958803816967,0.617041196183033
201,136,Cued,201,2,1,1,476,2,0.03676886341460506,0.9632311365853949
202,136,Cued,202,1,1,1,411,1,0.9452014879851245,0.05479851201487547
203,136,Cued,203,1,1,1,551,1,0.7310507395574501,0.26894926044254985
204,136,Cued,204,2,2,2,596,2,0.0714035528644773,0.9285964471355227
205,136,Cued,205,1,2,2,655,2,0.3345308655589966,0.6654691344410034
206,136,Cued,206,2,1,1,777,2,0.059766228654000275,0.9402337713459997
207,136,Cued,207,1,2,2,634,1,0.7526498543619767,0.24735014563802327
208,136,Cued,208,1,1,1,684,1,0.773940959063175,0.2260590409368251
209,136,Cued,209,2,1,1,539,2,0.254078786685102,0.745921213314898
210,136,Cued,210,2,2,2,577,2,0.07351847543249068,0.9264815245675093
211,136,Cued,211,1,1,1,413,1,0.8898451235920749,0.11015487640792505
212,136,Cued,212,1,1,1,465,1,0.8568951471390774,0.1431048528609226
213,136,Cued,213,2,2,2,447,2,0.08644124354156946,0.9135587564584305
214,136,Cued,214,1,1,1,443,1,0.8578909759449359,0.14210902405506406
215,136,Cued,215,1,1,1,444,2,0.3333036990197994,0.6666963009802006
216,136,Cued,216,2,2,2,446,2,0.17124570606797607,0.8287542939320239
217,136,Cued,217,2,2,2,448,2,0.3463459340165075,0.6536540659834925
218,136,Cued,218,2,2,2,489,2,0.04505193197601154,0.9549480680239885
219,136,Cued,219,1,1,1,454,2,0.42529524117936734,0.5747047588206327
220,136,Cued,220,2,2,2,435,2,0.160003494698287,0.839996505301713
221,136,Cued,221,2,2,2,497,2,0.03677016345443218,0.9632298365455678
222,136,Cued,222,1,2,2,614,1,0.9325167845781892,0.06748321542181074
223,136,Cued,223,1,1,1,430,1,0.7633867782089481,0.23661322179105196
224,136,Cued,224,2,2,2,550,2,0.1553336708342331,0.8446663291657669
225,136,Cued,225,2,2,2,553,1,0.6004847359964958,0.3995152640035042
226,136,Cued,226,2,1,1,1246,1,0.7723258514370007,0.22767414856299925
227,136,Cued,227,2,2,2,528,2,0.2558060827287998,0.7441939172712002
228,136,Cued,228,1,1,1,544,1,0.8581316205637293,0.1418683794362708
229,136,Cued,229,2,2,2,490,2,0.4005862009005471,0.5994137990994529
230,136,Cued,230,1,1,1,432,1,0.9004543627651712,0.09954563723482879
231,136,Cued,231,1,2,2,679,1,0.7221412574527353,0.2778587425472647
232,136,Cued,232,2,2,2,516,2,0.17976115511648538,0.8202388448835146
233,136,Cued,233,2,2,2,474,1,0.5307840494164877,0.46921595058351234
234,136,Cued,234,2,2,2,458,2,0.2621824090115027,0.7378175909884973
235,136,Cued,235,2,2,2,463,1,0.7026226728986177,0.2973773271013823
236,136,Cued,236,2,2,2,495,2,0.09747545974609473,0.9025245402539053
237,136,Cued,237,2,2,2,535,1,0.8017594369450566,0.1982405630549434
238,136,Cued,238,1,1,1,516,1,0.7873981355063276,0.21260186449367238
239,136,Cued,239,2,2,2,458,2,0.03232784031873159,0.9676721596812684
0,358,Cued,0,2,2,2,387,2,0.22517714455099802,0.774822855449002
1,358,Cued,1,2,1,1,520,1,0.7559763757303593,0.24402362426964072
2,358,Cued,2,1,1,1,318,1,0.7494834178179308,0.2505165821820692
3,358,Cued,3,1,1,1,446,1,0.939498154879305,0.06050184512069503
4,358,Cued,4,2,2,2,394,2,0.15924443573818714,0.8407555642618129
5,358,Cued,5,1,1,1,333,1,0.7812066513984766,0.2187933486015235
6,358,Cued,6,1,1,1,326,1,0.7928896996030268,0.20711030039697317
7,358,Cued,7,2,2,2,348,2,0.012530601736926106,0.9874693982630739
8,358,Cued,8,2,2,2,369,2,0.1942612172557887,0.8057387827442113
9,358,Cued,9,2,2,2,429,2,0.48560450348438644,0.5143954965156136
10,358,Cued,10,1,1,1,313,1,0.8253075544975441,0.17469244550245594
11,358,Cued,11,2,2,2,392,2,0.15902962458612635,0.8409703754138736
12,358,Cued,12,1,2,1,474,1,0.939506077672611,0.06049392232738901
13,358,Cued,13,1,1,1,406,1,0.6763240469315561,0.3236759530684438
14,358,Cued,14,1,1,1,410,1,0.6197871467353845,0.3802128532646155
15,358,Cued,15,2,1,1,563,2,0.2580031384746003,0.7419968615253997
16,358,Cued,16,1,1,1,471,1,0.750597157501101,0.24940284249889905
17,358,Cued,17,2,2,2,408,2,0.058114050364537984,0.941885949635462
18,358,Cued,18,1,1,1,468,1,0.5846502761928134,0.4153497238071866
19,358,Cued,19,2,2,2,527,2,0.16479713116215433,0.8352028688378457
20,358,Cued,20,1,1,1,398,2,0.418677066998713,0.581322933001287
21,358,Cued,21,2,2,2,498,2,0.13801996556618812,0.8619800344338119
22,358,Cued,22,1,1,1,387,1,0.7623379932694456,0.23766200673055443
23,358,Cued,23,2,2,2,414,2,0.07682308875140431,0.9231769112485957
24,358,Cued,24,2,2,2,650,2,0.11323741740199844,0.8867625825980016
25,358,Cued,25,2,2,2,410,2,0.0325898088811204,0.9674101911188796
26,358,Cued,26,1,1,1,431,1,0.9932793338265719,0.006720666173428186
27,358,Cued,27,2,2,2,490,2,0.09041282267804263,0.9095871773219574
28,358,Cued,28,1,1,1,466,1,0.7038894367993829,0.2961105632006171
29,358,Cued,29,1,1,1,403,1,0.93074530416687,0.06925469583313007
30,358,Cued,30,2,2,2,422,1,0.5423326777081006,0.4576673222918995
31,358,Cued,31,1,1,1,360,1,0.910603254437383,0.08939674556261697
32,358,Cued,32,1,1,1,386,1,0.7389427985623171,0.2610572014376828
33,358,Cued,33,1,1,1,610,1,0.9608917680777717,0.03910823192222835
34,358,Cued,34,2,2,2,445,2,0.04469282435969624,0.9553071756403038
35,358,Cued,35,2,2,2,440,2,0.055982971236415935,0.9440170287635841
36,358,Cued,36,2,2,2,469,2,0.13969347686785916,0.8603065231321408
37,358,Cued,37,1,1,1,543,1,0.6052691876757166,0.39473081232428336
38,358,Cued,38,1,1,1,650,1,0.9501704106180664,0.04982958938193365
39,358,Cued,39,1,1,1,401,1,0.6553913040902158,0.34460869590978416
40,358,Cued,40,2,2,2,420,1,0.8903593945554586,0.10964060544454132
41,358,Cued,41,1,1,1,631,2,0.2968383002867604,0.7031616997132396
42,358,Cued,42,2,2,2,416,2,0.15130137972628677,0.8486986202737132
43,358,Cued,43,1,1,1,363,1,0.9677603011628009,0.03223969883719909
44,358,Cued,44,1,1,1,382,1,0.6209786417178957,0.37902135828210426
45,358,Cued,45,2,2,2,415,2,0.024573849079349563,0.9754261509206504
46,358,Cued,46,1,2,2,646,1,0.8454094768889795,0.15459052311102053
47,358,Cued,47,1,1,1,512,1,0.7993023979344956,0.20069760206550438
48,358,Cued,48,2,2,2,399,2,0.12923655366200615,0.8707634463379939
49,358,Cued,49,2,1,1,557,2,0.2934480613118249,0.7065519386881751
50,358,Cued,50,1,1,1,431,1,0.7429250357478385,0.2570749642521615
51,358,Cued,51,2,2,2,424,2,0.31550494496747217,0.6844950550325278
52,358,Cued,52,1,1,1,330,1,0.9241363839664332,0.07586361603356687
53,358,Cued,53,1,1,1,366,1,0.9938778379424202,0.006122162057579812
54,358,Cued,54,2,2,2,501,2,0.1662886960873382,0.8337113039126618
55,358,Cued,55,2,2,2,453,2,0.4244979770633318,0.5755020229366682
56,358,Cued,56,1,1,1,275,1,0.7042723836576805,0.2957276163423194
57,358,Cued,57,1,2,2,538,2,0.4896522659860192,0.5103477340139808
58,358,Cued,58,2,1,1,584,2,0.31856929919247823,0.6814307008075218
59,358,Cued,59,2,2,2,491,2,0.28831317705049475,0.7116868229495052
60,358,Cued,60,2,2,2,424,2,0.07252002357259746,0.9274799764274025
61,358,Cued,61,1,1,1,311,1,0.8657847693736743,0.1342152306263257
62,358,Cued,62,1,2,2,600,1,0.8014053112659775,0.19859468873402253
63,358,Cued,63,1,2,2,606,1,0.8531325775760635,0.1468674224239365
64,358,Cued,64,1,1,1,450,1,0.8045148577517081,0.19548514224829194
65,358,Cued,65,2,2,2,377,2,0.29167232130994636,0.7083276786900536
66,358,Cued,66,2,2,2,797,1,0.5829316210680529,0.41706837893194715
67,358,Cued,67,2,2,2,417,2,0.29250383202350183,0.7074961679764982
68,358,Cued,68,2,2,2,405,2,0.053561868398766865,0.9464381316012331
69,358,Cued,69,1,1,1,268,2,0.48921802626933997,0.51078197373066
70,358,Cued,70,2,2,2,533,2,0.1765587085829935,0.8234412914170065
71,358,Cued,71,2,2,2,424,1,0.5730766632319423,0.4269233367680577
72,358,Cued,72,2,2,2,378,2,0.07260010971808806,0.9273998902819119
73,358,Cued,73,2,2,2,438,2,0.23666690241531652,0.7633330975846835
74,358,Cued,74,2,2,2,413,2,0.04436212044233223,0.9556378795576678
75,358,Cued,75,2,2,2,417,2,0.15054560268035677,0.8494543973196432
76,358,Cued,76,2,2,2,409,2,0.2704494237980599,0.7295505762019401
77,358,Cued,77,2,2,2,448,2,0.39951214893876064,0.6004878510612394
78,358,Cued,78,1,1,1,321,1,0.8802873409366083,0.11971265906339165
79,358,Cued,79,1,1,1,333,1,0.8919384781196615,0.10806152188033849
80,358,Cued,80,2,2,2,422,2,0.14126873775715565,0.8587312622428444
81,358,Cued,81,2,2,2,470,2,0.13980059086008867,0.8601994091399113
82,358,Cued,82,1,1,1,272,1,0.5635440978308226,0.43645590216917746
83,358,Cued,83,1,1,2,368,1,0.8961619809076742,0.10383801909232587
84,358,Cued,84,2,2,2,541,2,0.33027494051963224,0.6697250594803678
85,358,Cued,85,2,2,2,382,2,0.07328806364459184,0.9267119363554082
86,358,Cued,86,2,2,2,678,2,0.16720299144975415,0.8327970085502459
87,358,Cued,87,1,1,1,439,1,0.737980879712528,0.26201912028747204
88,358,Cued,88,2,1,1,476,2,0.19269555912803293,0.8073044408719671
89,358,Cued,89,2,2,2,381,2,0.1300284807498261,0.8699715192501739
90,358,Cued,90,1,1,1,322,1,0.8757172294575113,0.12428277054248868
91,358,Cued,91,1,1,1,538,1,0.7210381940449333,0.27896180595506676
92,358,Cued,92,1,2,2,518,1,0.9737723202406201,0.026227679759379896
93,358,Cued,93,2,1,1,468,2,0.22197463475971257,0.7780253652402874
94,358,Cued,94,1,2,2,603,2,0.46326774941683035,0.5367322505831696
95,358,Cued,95,2,2,2,452,2,0.13983443904343906,0.8601655609565609
96,358,Cued,96,1,1,1,421,1,0.8725136872171104,0.12748631278288963
97,358,Cued,97,1,1,1,357,1,0.9875876274453115,0.01241237255468848
98,358,Cued,98,2,2,2,523,2,0.24324710856877785,0.7567528914312222
99,358,Cued,99,2,1,1,563,1,0.5368878668375701,0.4631121331624299
100,358,Cued,100,1,1,1,533,1,0.5445832146191503,0.4554167853808497
101,358,Cued,101,1,1,1,348,1,0.9809845289840653,0.01901547101593468
102,358,Cued,102,1,2,1,380,1,0.8391062911427503,0.16089370885724974
103,358,Cued,103,2,2,2,378,2,0.040873031738969945,0.95912696826103
104,358,Cued,104,2,1,1,495,1,0.7912251360238389,0.2087748639761611
105,358,Cued,105,1,1,1,639,1,0.8186645277221296,0.18133547227787045
106,358,Cued,106,2,2,2,409,2,0.18741347605780567,0.8125865239421943
107,358,Cued,107,2,2,2,390,2,0.4779723803724786,0.5220276196275214
108,358,Cued,108,1,1,1,314,1,0.9472313535174126,0.052768646482587424
109,358,Cued,109,2,2,2,432,2,0.06413438331193433,0.9358656166880657
110,358,Cued,110,2,2,2,446,2,0.3592692064526448,0.6407307935473552
111,358,Cued,111,2,2,1,553,2,0.03822538247618046,0.9617746175238195
112,358,Cued,112,1,2,1,622,1,0.8136810875415668,0.18631891245843324
113,358,Cued,113,2,2,2,497,2,0.14808758163766378,0.8519124183623362
114,358,Cued,114,1,1,1,402,1,0.8953097174320216,0.10469028256797837
115,358,Cued,115,1,2,2,468,1,0.7973107729991176,0.2026892270008825
116,358,Cued,116,1,1,1,309,1,0.7792939054742583,0.22070609452574178
117,358,Cued,117,1,1,1,476,1,0.5429050657455936,0.45709493425440645
118,358,Cued,118,2,2,2,419,2,0.25923717007590863,0.7407628299240914
119,358,Cued,119,1,1,1,405,1,0.644640442125477,0.355359557874523
120,358,Cued,120,1,1,1,353,1,0.5658182631509845,0.4341817368490155
121,358,Cued,121,2,2,2,387,2,0.14693101184825086,0.8530689881517491
122,358,Cued,122,1,1,1,303,1,0.86019445825686,0.13980554174313994
123,358,Cued,123,2,2,2,405,2,0.3761669978496426,0.6238330021503574
124,358,Cued,124,2,2,2,371,2,0.3281508257958933,0.6718491742041067
125,358,Cued,125,2,2,2,411,2,0.039627780724524886,0.9603722192754751
126,358,Cued,126,1,2,2,518,1,0.801675985171299,0.19832401482870096
127,358,Cued,127,2,2,2,388,2,0.19906730315471644,0.8009326968452836
128,358,Cued,128,2,2,2,424,2,0.16457996798524466,0.8354200320147553
129,358,Cued,129,2,1,1,474,2,0.10846618136300579,0.8915338186369942
130,358,Cued,130,1,1,1,363,1,0.6564009458588544,0.34359905414114555
131,358,Cued,131,1,1,1,349,1,0.6290179733806047,0.37098202661939533
132,358,Cued,132,1,2,2,497,1,0.9094480394602142,0.09055196053978572
133,358,Cued,133,2,2,2,609,1,0.6728310546158167,0.3271689453841833
134,358,Cued,134,1,2,2,669,1,0.6341294604160768,0.3658705395839232
135,358,Cued,135,2,2,2,462,2,0.09455167222068483,0.9054483277793152
136,358,Cued,136,2,2,2,466,2,0.017189838952112013,0.982810161047888
137,358,Cued,137,2,1,1,476,2,0.2857053368350011,0.7142946631649989
138,358,Cued,138,2,2,2,486,2,0.0459667175412547,0.9540332824587453
139,358,Cued,139,2,1,1,466,2,0.29172264857508945,0.7082773514249106
140,358,Cued,140,2,2,2,409,2,0.21278493703853374,0.7872150629614663
141,358,Cued,141,2,2,2,421,2,0.10041291005705355,0.8995870899429464
142,358,Cued,142,1,1,1,276,1,0.5961300924432273,0.4038699075567727
143,358,Cued,143,2,2,2,294,2,0.10470704336823133,0.8952929566317687
144,358,Cued,144,2,2,2,390,2,0.051508689916449524,0.9484913100835505
145,358,Cued,145,1,1,1,296,1,0.5589158776264856,0.44108412237351435
146,358,Cued,146,1,1,1,546,1,0.8260188059143249,0.1739811940856751
147,358,Cued,147,2,2,2,489,2,0.08997287664594888,0.9100271233540511
148,358,Cued,148,2,2,2,351,2,0.036419256426722835,0.9635807435732772
149,358,Cued,149,2,2,2,364,2,0.11016114470628569,0.8898388552937143
150,358,Cued,150,2,2,2,644,2,0.15512874969657486,0.8448712503034251
151,358,Cued,151,1,1,1,322,1,0.5519425324033087,0.4480574675966913
152,358,Cued,152,2,1,1,746,2,0.49908190175751,0.50091809824249
153,358,Cued,153,1,1,1,335,1,0.7258569868047957,0.27414301319520423
154,358,Cued,154,1,1,1,269,1,0.7424532931270191,0.2575467068729809
155,358,Cued,155,2,2,2,374,2,0.2835019601194462,0.7164980398805538
156,358,Cued,156,1,2,2,851,1,0.937082230835079,0.06291776916492092
157,358,Cued,157,1,1,1,429,1,0.6273425519927625,0.3726574480072376
158,358,Cued,158,1,1,1,343,1,0.9285387610482924,0.0714612389517076
159,358,Cued,159,1,2,2,586,1,0.9460260160282699,0.053973983971730095
160,358,Cued,160,2,2,2,390,2,0.49039077623659355,0.5096092237634064
161,358,Cued,161,1,1,1,297,1,0.7594479122650788,0.2405520877349212
162,358,Cued,162,1,1,1,360,1,0.7794747950380311,0.22052520496196892
163,358,Cued,163,2,2,2,376,2,0.28003919939039956,0.7199608006096004
164,358,Cued,164,1,1,1,357,1,0.8745129099110118,0.12548709008898817
165,358,Cued,165,2,2,2,414,2,0.4946873237853443,0.5053126762146557
166,358,Cued,166,1,1,1,313,2,0.27076782888260986,0.7292321711173901
167,358,Cued,167,1,1,1,616,1,0.7650748868500973,0.23492511314990272
168,358,Cued,168,1,2,2,523,2,0.4624269130238502,0.5375730869761498
169,358,Cued,169,1,1,1,322,1,0.933253534290891,0.06674646570910901
170,358,Cued,170,2,2,2,389,2,0.12550558816637336,0.8744944118336266
171,358,Cued,171,2,2,2,397,2,0.07275434318551977,0.9272456568144802
172,358,Cued,172,1,1,1,240,1,0.9792683174093483,0.020731682590651702
173,358,Cued,173,2,2,2,408,2,0.23156112688095987,0.7684388731190401
174,358,Cued,174,2,1,1,575,2,0.3477760463176719,0.6522239536823281
175,358,Cued,175,2,2,2,644,2,0.39676489410078797,0.603235105899212
176,358,Cued,176,2,2,2,599,1,0.843093668189047,0.15690633181095304
177,358,Cued,177,1,1,1,290,1,0.6954331477292235,0.30456685227077657
178,358,Cued,178,1,2,2,485,1,0.9755816189077842,0.024418381092215825
179,358,Cued,179,2,2,2,400,2,0.30456887296052115,0.6954311270394788
180,358,Cued,180,1,1,1,319,1,0.6963145294386945,0.3036854705613054
181,358,Cued,181,2,1,1,582,2,0.08800986805489897,0.911990131945101
182,358,Cued,182,1,1,1,501,1,0.8424371133435875,0.1575628866564125
183,358,Cued,183,2,1,1,460,2,0.265165493035344,0.734834506964656
184,358,Cued,184,2,2,2,418,1,0.7239280754301427,0.27607192456985735
185,358,Cued,185,1,1,1,386,1,0.535075155052292,0.464924844947708
186,358,Cued,186,1,1,1,318,1,0.9077209322746165,0.09227906772538348
187,358,Cued,187,2,2,2,387,2,0.16292897849903587,0.8370710215009641
188,358,Cued,188,2,1,1,530,2,0.4382397356807872,0.5617602643192128
189,358,Cued,189,1,1,1,343,1,0.6319987970448062,0.36800120295519384
190,358,Cued,190,2,2,2,397,2,0.17932282886916673,0.8206771711308333
191,358,Cued,191,1,1,1,277,2,0.38047378031625456,0.6195262196837454
192,358,Cued,192,1,1,1,341,1,0.6265996765728563,0.3734003234271437
193,358,Cued,193,2,2,2,386,2,0.2427384303806035,0.7572615696193965
194,358,Cued,194,2,2,2,613,2,0.2941878194487302,0.7058121805512698
195,358,Cued,195,1,1,1,352,1,0.9680320814508752,0.031967918549124806
196,358,Cued,196,2,2,2,507,2,0.16144635430252874,0.8385536456974713
197,358,Cued,197,2,2,2,346,2,0.36157659317513136,0.6384234068248686
198,358,Cued,198,1,2,1,440,2,0.33957973118258133,0.6604202688174187
199,358,Cued,199,1,2,2,578,1,0.8829451326294735,0.11705486737052646
200,358,Cued,200,1,1,1,435,1,0.937155474237267,0.06284452576273301
201,358,Cued,201,2,2,2,453,2,0.38380704160895984,0.6161929583910402
202,358,Cued,202,1,1,1,321,1,0.8845332920884671,0.1154667079115329
203,358,Cued,203,1,1,1,340,1,0.9679644554067378,0.03203554459326222
204,358,Cued,204,2,2,2,391,2,0.08617327625187199,0.913826723748128
205,358,Cued,205,1,1,1,419,1,0.6078545291187918,0.3921454708812082
206,358,Cued,206,1,1,1,342,1,0.9069206427672629,0.09307935723273704
207,358,Cued,207,1,1,1,672,1,0.8263537264945766,0.1736462735054234
208,358,Cued,208,1,1,1,407,1,0.5973987377766354,0.40260126222336456
209,358,Cued,209,1,1,1,339,2,0.40367374175584847,0.5963262582441515
210,358,Cued,210,1,2,2,402,1,0.800623783974336,0.19937621602566405
211,358,Cued,211,2,1,1,485,2,0.0557968831972353,0.9442031168027647
212,358,Cued,212,1,1,1,389,1,0.8239907410509171,0.17600925894908287
213,358,Cued,213,1,1,1,352,1,0.6815869878422196,0.31841301215778034
214,358,Cued,214,1,1,1,373,1,0.7263514608249231,0.2736485391750769
215,358,Cued,215,1,2,2,489,1,0.9606962677451065,0.03930373225489349
216,358,Cued,216,2,2,2,553,1,0.7322403609614099,0.2677596390385901
217,358,Cued,217,1,1,1,458,1,0.929531473594905,0.07046852640509502
218,358,Cued,218,1,1,1,436,1,0.5824356055891682,0.4175643944108318
219,358,Cued,219,2,2,2,405,2,0.2550728995163719,0.7449271004836281
220,358,Cued,220,2,2,2,921,2,0.16656855081301447,0.8334314491869855
221,358,Cued,221,2,2,2,399,2,0.17748382999479428,0.8225161700052057
222,358,Cued,222,1,1,1,262,1,0.7750518178424907,0.22494818215750934
223,358,Cued,223,1,1,1,371,2,0.20272524653542112,0.7972747534645789
224,358,Cued,224,2,2,2,374,2,0.13265011033622331,0.8673498896637767
225,358,Cued,225,1,1,1,319,1,0.8221563122397915,0.17784368776020856
226,358,Cued,226,1,1,1,374,1,0.6437945242816028,0.3562054757183973
227,358,Cued,227,2,2,2,466,2,0.2677681553314981,0.7322318446685019
228,358,Cued,228,2,2,2,473,2,0.011671961835535982,0.988328038164464
229,358,Cued,229,2,1,1,482,2,0.2934499823350253,0.7065500176649747
230,358,Cued,230,1,1,1,311,2,0.4724274449644599,0.5275725550355401
231,358,Cued,231,2,2,2,366,2,0.4850711780589273,0.5149288219410727
232,358,Cued,232,1,1,1,357,2,0.3202266418144607,0.6797733581855393
233,358,Cued,233,2,2,2,358,2,0.09484722928689482,0.9051527707131052
234,358,Cued,234,2,2,2,552,2,0.35045797609440854,0.6495420239055915
235,358,Cued,235,2,1,1,441,2,0.43493265285998217,0.5650673471400178
236,358,Cued,236,1,1,1,363,1,0.7605562173789032,0.2394437826210968
237,358,Cued,237,2,1,1,420,2,0.11574295526027978,0.8842570447397202
238,358,Cued,238,2,2,2,414,2,0.10152211089644259,0.8984778891035574
239,358,Cued,239,1,1,1,408,1,0.8327969472744823,0.1672030527255177
0,916,Cued,0,1,1,1,578,1,0.7992826787903576,0.2007173212096424
1,916,Cued,1,1,1,1,447,2,0.2285259969556248,0.7714740030443752
2,916,Cued,2,2,2,2,553,2,0.15931815612782374,0.8406818438721763
3,916,Cued,3,1,1,1,567,1,0.6358589001037939,0.36414109989620613
4,916,Cued,4,1,1,1,518,2,0.41970402388489825,0.5802959761151018
5,916,Cued,5,2,2,2,494,2,0.4849349662005812,0.5150650337994188
6,916,Cued,6,2,2,2,632,2,0.38947829093691055,0.6105217090630894
7,916,Cued,7,1,1,1,591,1,0.7553124492008683,0.2446875507991317
8,916,Cued,8,1,1,1,739,1,0.7583298221461294,0.24167017785387054
9,916,Cued,9,1,1,1,558,1,0.676807790742115,0.32319220925788505
10,916,Cued,10,2,2,2,509,2,0.459178478013871,0.540821521986129
11,916,Cued,11,1,1,1,641,1,0.727992124748111,0.27200787525188896
12,916,Cued,12,2,2,2,668,2,0.3958415908502495,0.6041584091497505
13,916,Cued,13,1,1,1,467,1,0.5091192536142704,0.4908807463857297
14,916,Cued,14,2,1,1,734,2,0.23628360830806705,0.763716391691933
15,916,Cued,15,1,1,1,463,1,0.724895641936373,0.275104358063627
16,916,Cued,16,1,2,2,521,1,0.625460246250122,0.37453975374987797
17,916,Cued,17,2,2,2,431,2,0.13756701896867918,0.8624329810313208
18,916,Cued,18,1,2,1,493,1,0.7675622503685567,0.23243774963144323
19,916,Cued,19,2,2,2,559,2,0.27646515834684093,0.7235348416531591
20,916,Cued,20,1,1,1,647,1,0.8994594619902467,0.10054053800975332
21,916,Cued,21,2,2,2,547,2,0.14678636899418207,0.8532136310058179
22,916,Cued,22,1,1,1,552,1,0.8554249412071477,0.14457505879285223
23,916,Cued,23,2,2,2,709,1,0.5302406292424723,0.4697593707575277
24,916,Cued,24,1,1,1,627,1,0.8625419172557853,0.13745808274421473
25,916,Cued,25,1,1,1,669,2,0.41102113634026916,0.5889788636597308
26,916,Cued,26,1,2,2,571,1,0.7630303463307431,0.23696965366925687
27,916,Cued,27,1,1,1,584,1,0.8168509367178322,0.18314906328216785
28,916,Cued,28,2,1,1,717,2,0.24226023701284016,0.7577397629871598
29,916,Cued,29,2,2,2,675,2,0.3435335686608314,0.6564664313391686
30,916,Cued,30,1,1,1,620,1,0.9043471127410252,0.09565288725897476
31,916,Cued,31,1,1,1,450,1,0.8815158724204415,0.11848412757955853
32,916,Cued,32,2,2,2,619,2,0.20497548135646038,0.7950245186435396
33,916,Cued,33,2,2,2,646,1,0.7633210307173556,0.23667896928264442
34,916,Cued,34,1,1,1,410,1,0.7396320840796284,0.26036791592037156
35,916,Cued,35,2,2,2,499,2,0.2418082196065653,0.7581917803934347
36,916,Cued,36,1,1,1,574,1,0.7845274334975695,0.21547256650243055
37,916,Cued,37,2,2,2,501,1,0.5541976913537968,0.4458023086462032
38,916,Cued,38,2,2,2,601,1,0.6950735933218946,0.3049264066781054
39,916,Cued,39,2,2,2,534,2,0.228519233364453,0.771480766635547
40,916,Cued,40,1,1,1,453,1,0.5173437813989157,0.4826562186010844
41,916,Cued,41,1,1,1,750,1,0.9052986985718906,0.0947013014281094
42,916,Cued,42,2,2,2,429,2,0.386201925310813,0.613798074689187
43,916,Cued,43,1,1,1,324,1,0.8560068975622587,0.1439931024377413
44,916,Cued,44,1,1,1,537,2,0.30720886038679973,0.6927911396132003
45,916,Cued,45,2,2,2,424,2,0.20751073353969673,0.7924892664603033
46,916,Cued,46,1,2,1,586,1,0.8991952567005485,0.10080474329945159
47,916,Cued,47,2,1,1,944,1,0.6576676859367772,0.34233231406322284
48,916,Cued,48,1,1,1,645,1,0.909483228583167,0.090516771416833
49,916,Cued,49,1,1,1,669,1,0.6025055998388101,0.39749440016118986
50,916,Cued,50,1,1,1,440,1,0.6002435207111898,0.39975647928881025
51,916,Cued,51,2,2,2,739,2,0.45214705223105034,0.5478529477689497
52,916,Cued,52,2,2,2,519,2,0.16517462992231025,0.8348253700776898
53,916,Cued,53,2,2,2,541,1,0.6996497546000433,0.30035024539995664
54,916,Cued,54,1,1,1,705,1,0.7746723825618047,0.22532761743819524
55,916,Cued,55,2,2,2,712,2,0.43158717707239236,0.5684128229276076
56,916,Cued,56,2,2,2,533,2,0.27014551031753276,0.7298544896824672
57,916,Cued,57,2,1,1,652,2,0.4255640736144721,0.5744359263855279
58,916,Cued,58,2,2,2,650,2,0.03545022593568925,0.9645497740643107
59,916,Cued,59,2,2,2,787,2,0.19758834217883203,0.802411657821168
60,916,Cued,60,1,1,1,349,1,0.7644520725145779,0.23554792748542208
61,916,Cued,61,2,2,2,386,2,0.3466584459573814,0.6533415540426186
62,916,Cued,62,2,1,1,566,2,0.14421117810034656,0.8557888218996534
63,916,Cued,63,1,1,1,655,1,0.7086131150958701,0.2913868849041299
64,916,Cued,64,1,1,1,289,1,0.8854763424536282,0.11452365754637185
65,916,Cued,65,2,2,2,434,2,0.4651125885459748,0.5348874114540252
66,916,Cued,66,1,1,1,339,1,0.6310233037224833,0.3689766962775168
67,916,Cued,67,2,2,2,413,2,0.34988884075920934,0.6501111592407907
68,916,Cued,68,1,1,1,403,1,0.6082968701559864,0.39170312984401356
69,916,Cued,69,2,2,2,942,2,0.12543798271591677,0.8745620172840832
70,916,Cued,70,1,2,2,768,2,0.39728631511223367,0.6027136848877663
71,916,Cued,71,1,2,2,636,1,0.8885153033354691,0.11148469666453087
72,916,Cued,72,1,1,1,572,2,0.4939621583738981,0.5060378416261019
73,916,Cued,73,1,1,1,416,1,0.8877428451776647,0.11225715482233531
74,916,Cued,74,2,2,2,427,2,0.07259468404416514,0.9274053159558349
75,916,Cued,75,1,1,1,446,1,0.5017986499354552,0.49820135006454486
76,916,Cued,76,2,2,2,417,2,0.4162328132341774,0.5837671867658226
77,916,Cued,77,2,2,2,576,1,0.5399777263840555,0.4600222736159445
78,916,Cued,78,1,1,1,344,1,0.9906247193701276,0.009375280629872388
79,916,Cued,79,1,1,1,383,1,0.834686001640223,0.16531399835977703
80,916,Cued,80,1,1,1,533,1,0.6373676377453485,0.36263236225465145
81,916,Cued,81,2,1,1,588,2,0.46262471666011584,0.5373752833398842
82,916,Cued,82,1,1,1,535,1,0.7565704968304746,0.2434295031695254
83,916,Cued,83,1,1,1,333,1,0.6450148106086686,0.3549851893913314
84,916,Cued,84,1,1,1,465,1,0.7699141295516078,0.23008587044839227
85,916,Cued,85,1,1,1,384,1,0.5859309046587259,0.4140690953412741
86,916,Cued,86,2,2,2,388,2,0.4089640577825212,0.5910359422174788
87,916,Cued,87,1,1,1,353,1,0.5216905350765676,0.4783094649234324
88,916,Cued,88,1,1,1,361,1,0.9208743517792156,0.07912564822078441
89,916,Cued,89,1,1,1,340,1,0.7717596989960747,0.22824030100392537
90,916,Cued,90,2,2,2,512,2,0.07829915988104252,0.9217008401189575
91,916,Cued,91,2,2,2,444,2,0.47346049089895026,0.5265395091010497
92,916,Cued,92,2,2,2,558,2,0.1628543616151632,0.8371456383848368
93,916,Cued,93,2,2,2,527,2,0.3517506198942646,0.6482493801057354
94,916,Cued,94,2,1,1,542,2,0.09494204194132494,0.9050579580586751
95,916,Cued,95,2,2,2,513,2,0.3286844975628397,0.6713155024371603
96,916,Cued,96,1,1,1,461,2,0.4968987125619335,0.5031012874380665
97,916,Cued,97,2,2,2,580,1,0.5919151094108562,0.40808489058914377
98,916,Cued,98,1,1,1,378,1,0.8808453816614334,0.11915461833856654
99,916,Cued,99,2,2,2,647,2,0.12625959238821294,0.8737404076117871
100,916,Cued,100,1,1,1,1647,2,0.479614613684044,0.520385386315956
101,916,Cued,101,1,1,1,362,1,0.5737382781762046,0.42626172182379546
102,916,Cued,102,1,1,1,313,2,0.3252034783554508,0.6747965216445492
103,916,Cued,103,2,2,2,624,2,0.06383841525666756,0.9361615847433324
104,916,Cued,104,2,2,2,472,2,0.15747477117407072,0.8425252288259293
105,916,Cued,105,2,2,2,409,2,0.19917977034536238,0.8008202296546376
106,916,Cued,106,2,1,1,589,1,0.5534957580687956,0.44650424193120436
107,916,Cued,107,1,1,1,980,1,0.6514203438161514,0.3485796561838485
108,916,Cued,108,2,2,2,407,1,0.6746289623024504,0.32537103769754966
109,916,Cued,109,1,1,1,404,1,0.76260043723839,0.23739956276160998
110,916,Cued,110,1,2,2,544,1,0.6646562532166466,0.33534374678335344
111,916,Cued,111,1,1,1,513,1,0.8704253866692134,0.12957461333078654
112,916,Cued,112,1,2,2,869,1,0.8592271350812954,0.1407728649187045
113,916,Cued,113,2,2,2,486,2,0.33872826717502513,0.6612717328249749
114,916,Cued,114,1,1,1,531,1,0.9643286556987561,0.03567134430124387
115,916,Cued,115,2,1,2,435,2,0.08937161897290813,0.9106283810270919
116,916,Cued,116,1,1,1,1341,1,0.891282257654845,0.10871774234515497
117,916,Cued,117,2,1,1,626,2,0.2881138033296545,0.7118861966703455
118,916,Cued,118,2,2,2,530,2,0.4516796046220145,0.5483203953779855
119,916,Cued,119,1,2,2,724,2,0.3967297908590678,0.6032702091409322
120,916,Cued,120,2,2,2,439,1,0.6454450678412329,0.35455493215876716
121,916,Cued,121,1,1,1,401,1,0.814449784296834,0.18555021570316602
122,916,Cued,122,2,2,2,421,2,0.4437333039915502,0.5562666960084498
123,916,Cued,123,2,2,2,492,2,0.2798463993542696,0.7201536006457304
124,916,Cued,124,1,1,1,342,2,0.44897967559802177,0.5510203244019782
125,916,Cued,125,2,2,2,551,2,0.43527229371405607,0.5647277062859439
126,916,Cued,126,1,1,1,365,1,0.720789517728929,0.279210482271071
127,916,Cued,127,2,2,2,734,2,0.11125181871978174,0.8887481812802183
128,916,Cued,128,1,2,2,789,1,0.6726793389576694,0.3273206610423306
129,916,Cued,129,2,2,2,1055,2,0.3048061902608189,0.6951938097391811
130,916,Cued,130,1,1,1,617,1,0.8926987258608996,0.10730127413910037
131,916,Cued,131,2,2,2,396,1,0.5451645780335012,0.45483542196649884
132,916,Cued,132,2,2,2,464,1,0.6482631889646385,0.3517368110353615
133,916,Cued,133,2,1,1,529,1,0.517963405111483,0.482036594888517
134,916,Cued,134,1,1,1,352,2,0.49259105704095074,0.5074089429590493
135,916,Cued,135,1,2,2,570,1,0.9189385064524731,0.08106149354752692
136,916,Cued,136,2,2,2,457,2,0.18575650254240783,0.8142434974575922
137,916,Cued,137,2,2,2,430,2,0.3010449387619323,0.6989550612380677
138,916,Cued,138,1,1,1,385,1,0.6153618098417986,0.38463819015820144
139,916,Cued,139,2,2,2,574,1,0.5420920119495842,0.4579079880504157
140,916,Cued,140,1,1,1,363,1,0.8228869372180856,0.17711306278191435
141,916,Cued,141,2,2,2,481,2,0.43320732803141015,0.5667926719685898
142,916,Cued,142,2,2,2,415,2,0.10032220120646773,0.8996777987935323
143,916,Cued,143,1,1,1,413,1,0.8362971277507185,0.1637028722492815
144,916,Cued,144,1,1,1,357,1,0.5337291295411798,0.4662708704588202
145,916,Cued,145,2,1,1,540,1,0.5031012185083814,0.4968987814916186
146,916,Cued,146,2,1,1,1066,2,0.2862845326724852,0.7137154673275148
147,916,Cued,147,1,2,2,609,1,0.8355254566336868,0.1644745433663132
148,916,Cued,148,1,1,1,1010,2,0.309477713784702,0.690522286215298
149,916,Cued,149,1,1,1,499,1,0.785365821809409,0.21463417819059108
150,916,Cued,150,1,1,1,385,1,0.6288802999700465,0.3711197000299535
151,916,Cued,151,2,2,2,401,2,0.3343408939160518,0.6656591060839482
152,916,Cued,152,2,2,2,452,2,0.0975647315547008,0.9024352684452992
153,916,Cued,153,2,2,2,669,2,0.21961973654532518,0.7803802634546748
154,916,Cued,154,1,2,2,598,1,0.7631804226995036,0.2368195773004964
155,916,Cued,155,2,2,2,588,2,0.15380402700472007,0.8461959729952799
156,916,Cued,156,2,2,2,512,1,0.5008335126647685,0.49916648733523145
157,916,Cued,157,2,2,2,469,1,0.5092195092131477,0.49078049078685226
158,916,Cued,158,2,2,2,926,1,0.6970463745940139,0.30295362540598614
159,916,Cued,159,1,1,1,436,1,0.5868235269336219,0.41317647306637806
160,916,Cued,160,2,2,2,407,2,0.24658301607332567,0.7534169839266743
161,916,Cued,161,1,1,1,353,1,0.5380349225108783,0.4619650774891217
162,916,Cued,162,1,1,1,299,2,0.38674204476440777,0.6132579552355922
163,916,Cued,163,2,2,2,342,2,0.3869142423514339,0.6130857576485661
164,916,Cued,164,1,1,1,362,2,0.4235314398373502,0.5764685601626498
165,916,Cued,165,2,2,2,639,2,0.07397485849066898,0.926025141509331
166,916,Cued,166,2,1,1,704,2,0.24125143544431293,0.7587485645556871
167,916,Cued,167,2,2,2,488,2,0.3026692038901625,0.6973307961098375
168,916,Cued,168,2,2,2,386,2,0.2324223105584915,0.7675776894415085
169,916,Cued,169,1,1,1,360,1,0.9358825525151281,0.06411744748487193
170,916,Cued,170,1,2,1,749,1,0.8834327398185705,0.11656726018142946
171,916,Cued,171,1,2,2,946,1,0.627568627971238,0.372431372028762
172,916,Cued,172,2,2,2,412,1,0.6562017242363375,0.3437982757636625
173,916,Cued,173,2,2,2,440,2,0.21530302282447866,0.7846969771755213
174,916,Cued,174,1,2,2,686,1,0.6844625211784656,0.31553747882153443
175,916,Cued,175,2,2,2,507,2,0.380041257071527,0.619958742928473
176,916,Cued,176,1,1,1,987,2,0.3184165739338294,0.6815834260661706
177,916,Cued,177,1,1,1,380,1,0.6335010773970785,0.3664989226029215
178,916,Cued,178,2,2,2,387,2,0.08402586446021132,0.9159741355397887
179,916,Cued,179,2,2,2,687,2,0.0670377591506156,0.9329622408493844
180,916,Cued,180,1,1,1,497,1,0.8250593372252556,0.17494066277474443
181,916,Cued,181,1,1,1,344,1,0.7714919958167443,0.22850800418325562
182,916,Cued,182,1,1,1,339,1,0.6885837992873132,0.31141620071268683
183,916,Cued,183,1,2,2,569,1,0.5635594035639743,0.43644059643602573
184,916,Cued,184,1,2,2,573,1,0.841739892919335,0.15826010708066496
185,916,Cued,185,2,2,2,478,2,0.16578897868242648,0.8342110213175735
186,916,Cued,186,2,2,2,471,2,0.13340180157493653,0.8665981984250635
187,916,Cued,187,1,1,1,626,1,0.5788614602879479,0.42113853971205206
188,916,Cued,188,1,1,1,947,1,0.8210745606244996,0.17892543937550046
189,916,Cued,189,1,2,2,689,1,0.8688982158933207,0.1311017841066793
190,916,Cued,190,1,2,2,544,1,0.7632858725980357,0.23671412740196432
191,916,Cued,191,2,1,1,534,2,0.30597237902374064,0.6940276209762594
192,916,Cued,192,1,1,1,1041,1,0.7926541908496834,0.20734580915031667
193,916,Cued,193,2,2,2,515,2,0.10088045058338369,0.8991195494166163
194,916,Cued,194,1,1,1,442,1,0.6179813924257997,0.3820186075742003
195,916,Cued,195,2,1,1,814,1,0.5254199275780755,0.47458007242192446
196,916,Cued,196,2,2,2,454,2,0.26893170324680826,0.7310682967531917
197,916,Cued,197,2,1,1,598,2,0.1410925146979547,0.8589074853020453
198,916,Cued,198,2,2,2,426,2,0.31120082095429635,0.6887991790457036
199,916,Cued,199,1,2,2,724,1,0.7834673069039871,0.2165326930960129
200,916,Cued,200,2,2,2,418,2,0.06613260360959006,0.9338673963904099
201,916,Cued,201,2,2,2,429,2,0.38937874397635375,0.6106212560236463
202,916,Cued,202,1,1,1,366,1,0.8775924830473644,0.12240751695263564
203,916,Cued,203,1,1,1,564,1,0.6625543843004518,0.3374456156995482
204,916,Cued,204,1,1,1,336,1,0.9473471055132616,0.05265289448673832
205,916,Cued,205,2,2,2,414,2,0.19085176485578237,0.8091482351442176
206,916,Cued,206,2,2,2,457,1,0.5520749575329584,0.4479250424670416
207,916,Cued,207,1,1,1,389,1,0.5457638929986136,0.4542361070013864
208,916,Cued,208,2,2,2,480,2,0.16965284373990364,0.8303471562600964
209,916,Cued,209,2,2,2,425,2,0.13394687708064312,0.8660531229193569
210,916,Cued,210,2,2,2,883,2,0.3436087610061491,0.6563912389938509
211,916,Cued,211,1,1,1,411,2,0.22619476167036034,0.7738052383296397
212,916,Cued,212,2,2,2,503,1,0.6649055586619232,0.3350944413380767
213,916,Cued,213,2,1,2,421,2,0.2954752842687447,0.7045247157312553
214,916,Cued,214,1,1,1,556,1,0.525513489065409,0.47448651093459104
215,916,Cued,215,1,1,1,474,2,0.4072048239883601,0.5927951760116399
216,916,Cued,216,2,2,2,386,1,0.5053380660296305,0.4946619339703695
217,916,Cued,217,1,1,1,541,1,0.6974077628838964,0.3025922371161036
218,916,Cued,218,2,1,1,551,1,0.7392556863370461,0.260744313662954
219,916,Cued,219,2,2,2,463,2,0.2098130389282602,0.7901869610717398
220,916,Cued,220,1,1,1,472,1,0.7779360675139042,0.22206393248609577
221,916,Cued,221,2,2,2,454,2,0.22827442019799982,0.7717255798020002
222,916,Cued,222,1,1,1,351,2,0.4254366929565767,0.5745633070434233
223,916,Cued,223,1,2,2,784,1,0.6152221201150089,0.3847778798849911
224,916,Cued,224,2,2,2,559,2,0.11759836995802708,0.8824016300419729
225,916,Cued,225,2,2,2,462,2,0.06883435532154392,0.9311656446784561
226,916,Cued,226,2,2,2,496,2,0.3265071591911747,0.6734928408088253
227,916,Cued,227,1,1,1,458,2,0.42531814434009174,0.5746818556599083
228,916,Cued,228,1,1,1,347,1,0.6618051485342744,0.33819485146572564
229,916,Cued,229,1,1,1,414,2,0.32189491781320345,0.6781050821867965
230,916,Cued,230,1,1,1,364,2,0.422943622453712,0.577056377546288
231,916,Cued,231,2,2,2,609,2,0.294231148985063,0.705768851014937
232,916,Cued,232,1,1,1,412,1,0.5096653996982861,0.49033460030171394
233,916,Cued,233,2,2,2,391,2,0.17053552331125998,0.82946447668874
234,916,Cued,234,2,2,2,418,2,0.10950911734568136,0.8904908826543186
235,916,Cued,235,2,2,2,366,2,0.2097441956570023,0.7902558043429977
236,916,Cued,236,1,1,1,414,1,0.5768309525685504,0.4231690474314496
237,916,Cued,237,2,1,1,580,2,0.18493175944621276,0.8150682405537872
238,916,Cued,238,1,1,1,585,1,0.7665152380918838,0.2334847619081162
239,916,Cued,239,2,2,2,471,2,0.23995189149798524,0.7600481085020148
0,347,Cued,0,2,1,1,864,2,0.22372459668298406,0.7762754033170159
1,347,Cued,1,2,2,2,368,1,0.8228720678958508,0.1771279321041493
2,347,Cued,2,1,1,1,427,1,0.948682354390885,0.05131764560911504
3,347,Cued,3,1,1,1,811,1,0.940902042927888,0.059097957072111934
4,347,Cued,4,2,2,2,397,1,0.62906845413896,0.37093154586104
5,347,Cued,5,1,1,1,768,2,0.37230103391681935,0.6276989660831807
6,347,Cued,6,1,1,1,677,1,0.9138098837508319,0.08619011624916804
7,347,Cued,7,1,1,1,611,1,0.9604441232508345,0.03955587674916555
8,347,Cued,8,1,1,1,359,1,0.5374613021763102,0.4625386978236898
9,347,Cued,9,2,1,1,650,1,0.8211941146237665,0.1788058853762335
10,347,Cued,10,1,1,1,571,1,0.8674537473010973,0.13254625269890274
11,347,Cued,11,1,2,2,677,1,0.8305905689382189,0.16940943106178108
12,347,Cued,12,2,2,2,494,2,0.34530764500528655,0.6546923549947135
13,347,Cued,13,2,2,1,701,2,0.4163052576058166,0.5836947423941834
14,347,Cued,14,2,2,2,534,2,0.01221146373998705,0.987788536260013
15,347,Cued,15,1,1,1,764,1,0.7143513367780537,0.28564866322194626
16,347,Cued,16,2,1,1,659,2,0.3896680652476111,0.6103319347523889
17,347,Cued,17,1,1,1,636,1,0.6052941908304843,0.3947058091695157
18,347,Cued,18,1,1,1,516,1,0.9886752979970019,0.011324702002998078
19,347,Cued,19,1,1,1,508,1,0.8948711753050916,0.10512882469490839
20,347,Cued,20,1,2,3,2001,1,0.8528030304237353,0.14719696957626474
21,347,Cued,21,1,1,1,132,1,0.9771404585517313,0.022859541448268756
22,347,Cued,22,2,2,2,535,2,0.2799985418142307,0.7200014581857693
23,347,Cued,23,2,2,2,820,2,0.027108851681654778,0.9728911483183452
24,347,Cued,24,2,2,2,407,2,0.020408530078294906,0.9795914699217051
25,347,Cued,25,1,1,1,464,1,0.6178725887074804,0.3821274112925196
26,347,Cued,26,1,1,1,480,1,0.8734154222566655,0.12658457774333456
27,347,Cued,27,2,2,2,359,2,0.04714487836373016,0.9528551216362698
28,347,Cued,28,1,1,1,557,1,0.9091344486812359,0.09086555131876407
29,347,Cued,29,2,2,2,441,2,0.2099440441040048,0.7900559558959952
30,347,Cued,30,2,2,2,415,2,0.07193975746240644,0.9280602425375936
31,347,Cued,31,1,1,1,498,1,0.7858965705947815,0.21410342940521854
32,347,Cued,32,1,1,1,436,2,0.39719167775554276,0.6028083222444572
33,347,Cued,33,1,1,1,350,1,0.9138043365053996,0.08619566349460035
34,347,Cued,34,1,1,1,403,1,0.9635363285747411,0.03646367142525889
35,347,Cued,35,2,2,2,332,2,0.1388723130079076,0.8611276869920924
36,347,Cued,36,1,1,1,361,1,0.7100978215753139,0.28990217842468613
37,347,Cued,37,1,1,1,502,1,0.8408687883409138,0.1591312116590862
38,347,Cued,38,1,1,1,477,1,0.6871398875470851,0.31286011245291495
39,347,Cued,39,2,2,2,374,2,0.2331722482773294,0.7668277517226706
40,347,Cued,40,2,2,2,300,2,0.2644717094169524,0.7355282905830476
41,347,Cued,41,1,2,1,717,1,0.7669549423551678,0.23304505764483224
42,347,Cued,42,1,1,1,503,1,0.7583391651529403,0.24166083484705975
43,347,Cued,43,1,1,1,526,1,0.7218022547002759,0.2781977452997241
44,347,Cued,44,1,1,1,451,1,0.5014957593925913,0.49850424060740867
45,347,Cued,45,2,2,2,233,2,0.40704816986789605,0.592951830132104
46,347,Cued,46,2,2,1,573,2,0.03706305118698361,0.9629369488130164
47,347,Cued,47,1,1,1,554,1,0.9257572963741948,0.07424270362580522
48,347,Cued,48,1,1,1,566,2,0.28321932355817825,0.7167806764418218
49,347,Cued,49,1,1,1,571,1,0.8265793363245653,0.17342066367543474
50,347,Cued,50,2,2,2,216,2,0.2726852471927561,0.7273147528072439
51,347,Cued,51,1,1,1,478,1,0.9775071317453087,0.02249286825469135
52,347,Cued,52,1,1,1,101,1,0.5952583321526079,0.4047416678473921
53,347,Cued,53,2,2,2,216,2,0.2379908449323943,0.7620091550676057
54,347,Cued,54,1,1,1,321,1,0.8216606383574361,0.17833936164256387
55,347,Cued,55,2,1,2,101,2,0.06732167651794485,0.9326783234820551
56,347,Cued,56,1,1,1,440,1,0.6583607760191256,0.34163922398087443
57,347,Cued,57,1,1,1,469,1,0.6028501725391944,0.39714982746080557
58,347,Cued,58,2,2,2,356,2,0.01888838949562266,0.9811116105043773
59,347,Cued,59,2,2,2,409,1,0.5721739372976224,0.42782606270237755
60,347,Cued,60,2,1,1,1013,2,0.12644015863448932,0.8735598413655107
61,347,Cued,61,2,2,2,448,2,0.2323509301222939,0.7676490698777061
62,347,Cued,62,2,2,2,376,2,0.19557918055083445,0.8044208194491655
63,347,Cued,63,1,1,1,558,1,0.8236275426075377,0.17637245739246235
64,347,Cued,64,1,1,1,283,2,0.41018750738360543,0.5898124926163946
65,347,Cued,65,2,1,2,255,2,0.11576184205456808,0.8842381579454319
66,347,Cued,66,2,2,2,404,2,0.04884949718634701,0.951150502813653
67,347,Cued,67,1,1,1,1463,2,0.23256254252769748,0.7674374574723025
68,347,Cued,68,2,2,2,368,2,0.05366279515337713,0.9463372048466229
69,347,Cued,69,2,1,1,962,2,0.17558112843628682,0.8244188715637132
70,347,Cued,70,1,1,1,577,1,0.6051139063277771,0.3948860936722229
71,347,Cued,71,2,2,2,390,2,0.098012885800013,0.901987114199987
72,347,Cued,72,1,1,1,392,1,0.7375041996380711,0.2624958003619288
73,347,Cued,73,2,2,2,404,2,0.2441582368914762,0.7558417631085238
74,347,Cued,74,1,1,1,344,1,0.5100896328457548,0.4899103671542452
75,347,Cued,75,2,2,2,353,2,0.023993879949765873,0.9760061200502341
76,347,Cued,76,2,2,2,346,2,0.43367885335661216,0.5663211466433878
77,347,Cued,77,2,2,2,402,2,0.30094688398526626,0.6990531160147337
78,347,Cued,78,2,1,1,909,2,0.1613721003617361,0.8386278996382639
79,347,Cued,79,1,1,1,821,1,0.9592582274535302,0.04074177254646984
80,347,Cued,80,2,2,2,498,2,0.15878429968753172,0.8412157003124683
81,347,Cued,81,2,2,2,656,2,0.39759668696759976,0.6024033130324002
82,347,Cued,82,1,1,1,465,1,0.6109492729445647,0.3890507270554353
83,347,Cued,83,1,1,1,521,1,0.576194949341506,0.4238050506584941
84,347,Cued,84,2,2,2,469,2,0.3642094950688233,0.6357905049311767
85,347,Cued,85,1,1,1,501,1,0.9143045118488258,0.08569548815117424
86,347,Cued,86,2,1,1,912,2,0.16493808927810638,0.8350619107218936
87,347,Cued,87,2,2,2,387,2,0.21024538240356228,0.7897546175964377
88,347,Cued,88,2,2,2,376,1,0.7787385154398436,0.2212614845601564
89,347,Cued,89,2,2,2,492,2,0.36879677429840274,0.6312032257015973
90,347,Cued,90,1,1,1,427,1,0.5150023930296104,0.48499760697038957
91,347,Cued,91,1,1,1,438,1,0.9279890987020324,0.07201090129796765
92,347,Cued,92,1,1,1,467,1,0.9493696581812947,0.050630341818705245
93,347,Cued,93,2,2,2,371,2,0.1441926149188718,0.8558073850811282
94,347,Cued,94,1,1,1,380,1,0.5707021626390529,0.429297837360947
95,347,Cued,95,2,2,2,360,2,0.2308020845191796,0.7691979154808204
96,347,Cued,96,1,2,1,765,1,0.8996368039768393,0.10036319602316073
97,347,Cued,97,1,1,1,762,1,0.7914713420003004,0.20852865799969955
98,347,Cued,98,1,1,1,942,1,0.8802714210171348,0.1197285789828652
99,347,Cued,99,1,1,1,415,1,0.8025990049123746,0.1974009950876254
100,347,Cued,100,2,2,2,356,2,0.11206875222937163,0.8879312477706284
101,347,Cued,101,1,1,1,737,1,0.8241914115928933,0.17580858840710664
102,347,Cued,102,1,1,1,476,1,0.889453936647446,0.110546063352554
103,347,Cued,103,1,2,2,711,1,0.9263573975201196,0.07364260247988037
104,347,Cued,104,2,2,2,382,2,0.3694232121235905,0.6305767878764095
105,347,Cued,105,2,2,2,381,2,0.4985111955733633,0.5014888044266367
106,347,Cued,106,2,2,2,216,2,0.08564572372183044,0.9143542762781696
107,347,Cued,107,2,2,2,370,2,0.19057176113168628,0.8094282388683137
108,347,Cued,108,1,1,1,734,1,0.9245516327485769,0.0754483672514231
109,347,Cued,109,1,1,1,419,1,0.9826384586976462,0.017361541302353765
110,347,Cued,110,1,1,1,446,1,0.9256947637287898,0.07430523627121026
111,347,Cued,111,2,1,1,708,2,0.17576932097279985,0.8242306790272002
112,347,Cued,112,2,2,2,360,2,0.12888626231738243,0.8711137376826176
113,347,Cued,113,1,1,1,424,1,0.8662998110945068,0.13370018890549315
114,347,Cued,114,1,1,1,491,1,0.8667938676477003,0.13320613235229975
115,347,Cued,115,1,2,2,747,1,0.9562593983859462,0.04374060161405382
116,347,Cued,116,1,2,2,656,1,0.7997091674768217,0.20029083252317828
117,347,Cued,117,1,2,2,746,1,0.6902715198813281,0.30972848011867193
118,347,Cued,118,2,2,2,561,1,0.7882403487561963,0.21175965124380372
119,347,Cued,119,1,2,2,590,1,0.596914194273066,0.40308580572693403
120,347,Cued,120,1,1,1,584,1,0.8760952225707397,0.12390477742926036
121,347,Cued,121,1,2,2,587,1,0.9175319839152369,0.08246801608476312
122,347,Cued,122,2,2,2,391,1,0.5858521441525799,0.41414785584742014
123,347,Cued,123,2,2,2,393,2,0.031136471623137263,0.9688635283768627
124,347,Cued,124,1,1,1,437,1,0.8229905498493374,0.1770094501506626
125,347,Cued,125,2,2,2,353,2,0.4884305273827604,0.5115694726172396
126,347,Cued,126,2,1,1,818,2,0.04601701049743101,0.953982989502569
127,347,Cued,127,2,2,2,436,2,0.03012022217078192,0.9698797778292181
128,347,Cued,128,1,1,1,549,1,0.8589984984392287,0.14100150156077132
129,347,Cued,129,2,2,2,424,2,0.07531714327254546,0.9246828567274545
130,347,Cued,130,2,1,1,692,2,0.24620945214262346,0.7537905478573765
131,347,Cued,131,1,1,1,708,1,0.9793726711745454,0.020627328825454542
132,347,Cued,132,2,2,2,432,2,0.2194612929936467,0.7805387070063533
133,347,Cued,133,1,1,1,719,1,0.9531812082736837,0.0468187917263163
134,347,Cued,134,2,2,2,387,2,0.036738268323868395,0.9632617316761316
135,347,Cued,135,2,2,2,436,1,0.6031600319737929,0.39683996802620713
136,347,Cued,136,1,1,1,493,1,0.9023641639685651,0.09763583603143484
137,347,Cued,137,1,1,1,502,1,0.953993846710407,0.046006153289593066
138,347,Cued,138,2,2,2,501,2,0.05528433231778451,0.9447156676822155
139,347,Cued,139,1,1,1,429,1,0.7238231325222559,0.276176867477744
140,347,Cued,140,1,1,1,416,1,0.7410272622980196,0.2589727377019803
141,347,Cued,141,1,1,1,431,1,0.7015372712496013,0.29846272875039864
142,347,Cued,142,1,1,1,497,1,0.8648068310942165,0.13519316890578345
143,347,Cued,143,2,2,2,389,1,0.5988135070233074,0.40118649297669257
144,347,Cued,144,1,2,2,664,1,0.8987410644122273,0.10125893558777264
145,347,Cued,145,1,1,1,897,1,0.5796425294791498,0.42035747052085015
146,347,Cued,146,1,1,1,775,1,0.989768376558382,0.010231623441618027
147,347,Cued,147,2,2,2,371,1,0.5342847003461912,0.4657152996538087
148,347,Cued,148,2,2,2,419,2,0.2778217152438336,0.7221782847561664
149,347,Cued,149,1,1,1,580,2,0.17714875540603148,0.8228512445939685
150,347,Cued,150,2,2,2,376,2,0.2189796656075691,0.7810203343924309
151,347,Cued,151,2,1,1,868,2,0.06371487179957913,0.9362851282004209
152,347,Cued,152,1,2,2,606,1,0.8202149203054141,0.17978507969458596
153,347,Cued,153,1,1,1,635,1,0.8473518050521921,0.15264819494780787
154,347,Cued,154,1,1,1,685,1,0.9154952999061139,0.08450470009388608
155,347,Cued,155,2,2,2,392,2,0.2780407258326787,0.7219592741673213
156,347,Cued,156,2,2,2,345,2,0.3588030229589598,0.6411969770410402
157,347,Cued,157,2,2,2,309,2,0.09876126868138024,0.9012387313186198
158,347,Cued,158,1,1,1,398,1,0.7145266458453268,0.2854733541546733
159,347,Cued,159,1,1,1,334,1,0.5289338447667669,0.4710661552332332
160,347,Cued,160,2,2,2,256,2,0.05862910579600433,0.9413708942039957
161,347,Cued,161,2,1,1,743,2,0.03744326626700856,0.9625567337329914
162,347,Cued,162,2,2,2,373,2,0.08148204237852263,0.9185179576214774
163,347,Cued,163,2,2,2,374,2,0.28885810347217133,0.7111418965278287
164,347,Cued,164,2,1,1,853,2,0.08990267897611381,0.9100973210238862
165,347,Cued,165,2,2,2,396,1,0.6194795018636605,0.3805204981363395
166,347,Cued,166,2,2,2,408,2,0.4797137449051161,0.5202862550948839
167,347,Cued,167,1,1,1,656,1,0.8017613174320687,0.19823868256793128
168,347,Cued,168,1,1,1,521,1,0.7714678136322075,0.22853218636779254
169,347,Cued,169,2,1,1,624,2,0.3067205424818342,0.6932794575181658
170,347,Cued,170,1,2,2,730,1,0.883443017783085,0.11655698221691502
171,347,Cued,171,1,1,1,719,1,0.840378678413811,0.15962132158618897
172,347,Cued,172,1,2,2,670,1,0.5305993865297656,0.4694006134702345
173,347,Cued,173,1,1,1,806,1,0.91439071106133,0.08560928893867002
174,347,Cued,174,2,2,2,367,2,0.1000935325665685,0.8999064674334315
175,347,Cued,175,2,2,2,357,2,0.3509413225629632,0.6490586774370368
176,347,Cued,176,1,1,1,465,1,0.5368933700414955,0.4631066299585045
177,347,Cued,177,1,1,1,465,1,0.9345925342855894,0.06540746571441056
178,347,Cued,178,1,1,1,467,1,0.7813356778366244,0.21866432216337564
179,347,Cued,179,1,1,1,434,1,0.8648543165202499,0.13514568347975006
180,347,Cued,180,2,2,2,461,2,0.268351730435208,0.731648269564792
181,347,Cued,181,1,1,1,707,1,0.6547858153821213,0.34521418461787867
182,347,Cued,182,2,2,2,539,2,0.3225015019879356,0.6774984980120644
183,347,Cued,183,2,2,2,371,2,0.14933966552220634,0.8506603344777937
184,347,Cued,184,2,2,2,395,1,0.535830987789429,0.46416901221057105
185,347,Cued,185,2,1,1,687,2,0.2880251430257399,0.7119748569742601
186,347,Cued,186,1,1,1,535,2,0.38886710142055825,0.6111328985794418
187,347,Cued,187,1,1,1,456,2,0.4319399476492616,0.5680600523507384
188,347,Cued,188,1,1,1,403,1,0.9657057410355004,0.034294258964499516
189,347,Cued,189,2,2,2,381,2,0.489357315675117,0.510642684324883
190,347,Cued,190,2,2,2,524,2,0.3377433663228957,0.6622566336771043
191,347,Cued,191,1,1,1,459,1,0.8842964564625735,0.11570354353742654
192,347,Cued,192,1,1,1,685,1,0.9074754578953008,0.09252454210469915
193,347,Cued,193,1,1,1,405,1,0.9036586810049041,0.0963413189950959
194,347,Cued,194,2,2,2,364,1,0.5138167167816543,0.48618328321834564
195,347,Cued,195,2,2,2,392,2,0.20382365280238846,0.7961763471976115
196,347,Cued,196,2,2,2,397,2,0.18248162673399737,0.8175183732660026
197,347,Cued,197,1,1,1,352,2,0.41219372200178395,0.587806277998216
198,347,Cued,198,1,2,2,647,1,0.7182010148510045,0.28179898514899554
199,347,Cued,199,1,1,1,415,1,0.9176537290840029,0.08234627091599707
200,347,Cued,200,1,1,1,450,1,0.5041478913992996,0.49585210860070045
201,347,Cued,201,2,2,2,412,2,0.3581552874530377,0.6418447125469623
202,347,Cued,202,2,2,2,381,2,0.2985557963974409,0.7014442036025591
203,347,Cued,203,1,1,1,448,1,0.7520149492296657,0.2479850507703343
204,347,Cued,204,1,1,1,445,1,0.9150896497335042,0.08491035026649585
205,347,Cued,205,1,1,1,539,1,0.7604020846643991,0.2395979153356009
206,347,Cued,206,2,2,2,233,2,0.10112398652231558,0.8988760134776844
207,347,Cued,207,1,1,1,409,1,0.7988896755368573,0.20111032446314264
208,347,Cued,208,1,2,2,634,1,0.6285656844524168,0.37143431554758316
209,347,Cued,209,1,2,2,573,1,0.8115384725682487,0.18846152743175124
210,347,Cued,210,1,1,1,480,1,0.936474565019186,0.06352543498081402
211,347,Cued,211,1,1,1,528,2,0.4709286462994048,0.5290713537005952
212,347,Cued,212,2,1,1,839,2,0.06310062634483937,0.9368993736551606
213,347,Cued,213,1,2,2,576,2,0.4558135966728648,0.5441864033271352
214,347,Cued,214,1,1,1,813,1,0.7105547810356068,0.28944521896439324
215,347,Cued,215,2,2,2,423,2,0.41832384857963234,0.5816761514203677
216,347,Cued,216,2,2,2,594,2,0.49836467071418744,0.5016353292858126
217,347,Cued,217,1,2,2,620,1,0.7322046267772226,0.2677953732227774
218,347,Cued,218,2,2,2,533,2,0.20140480950617978,0.7985951904938202
219,347,Cued,219,2,2,2,467,2,0.43459355199663685,0.5654064480033631
220,347,Cued,220,2,2,2,487,2,0.33570161206461424,0.6642983879353858
221,347,Cued,221,2,2,2,679,2,0.09592357420935138,0.9040764257906486
222,347,Cued,222,1,1,1,767,1,0.6246343654354365,0.37536563456456357
223,347,Cued,223,1,1,1,761,1,0.963106371826598,0.036893628173401985
224,347,Cued,224,1,1,1,566,1,0.5745368212447935,0.42546317875520645
225,347,Cued,225,2,1,1,690,1,0.5457136745708455,0.4542863254291545
226,347,Cued,226,2,1,1,993,1,0.6136172064381165,0.38638279356188354
227,347,Cued,227,1,1,1,474,1,0.5371426863095183,0.4628573136904817
228,347,Cued,228,2,2,2,523,2,0.10126182418492113,0.8987381758150789
229,347,Cued,229,2,2,2,553,2,0.36895882946351477,0.6310411705364852
230,347,Cued,230,1,1,1,623,2,0.26914857337735676,0.7308514266226432
231,347,Cued,231,1,1,1,575,1,0.985090926906526,0.01490907309347404
232,347,Cued,232,2,2,2,492,1,0.7779739356758776,0.2220260643241224
233,347,Cued,233,2,1,1,675,1,0.5014178665528018,0.49858213344719815
234,347,Cued,234,2,2,2,535,2,0.020572826583776904,0.9794271734162231
235,347,Cued,235,2,1,1,670,2,0.262247636967729,0.737752363032271
236,347,Cued,236,1,1,1,378,1,0.9071310172659549,0.0928689827340451
237,347,Cued,237,2,2,2,455,2,0.20382947580208122,0.7961705241979188
238,347,Cued,238,1,1,1,503,1,0.778761517051391,0.221238482948609
239,347,Cued,239,1,1,1,502,1,0.8768157138834434,0.12318428611655659
0,766,Cued,0,1,1,1,310,1,0.5451655304838736,0.45483446951612644
1,766,Cued,1,1,1,1,310,2,0.3011180273613563,0.6988819726386437
2,766,Cued,2,1,1,1,364,1,0.906523122643261,0.09347687735673901
3,766,Cued,3,1,1,1,320,2,0.20197782718709656,0.7980221728129034
4,766,Cued,4,1,1,1,237,1,0.8036200468604965,0.19637995313950352
5,766,Cued,5,2,2,2,357,2,0.30547507565639676,0.6945249243436032
6,766,Cued,6,2,2,2,362,2,0.28150155281704436,0.7184984471829556
7,766,Cued,7,2,2,2,399,2,0.28646933115420126,0.7135306688457987
8,766,Cued,8,2,1,1,200,2,0.10491706181833493,0.8950829381816651
9,766,Cued,9,1,1,1,423,1,0.6284028440847877,0.3715971559152123
10,766,Cued,10,1,1,1,267,1,0.8690055948271778,0.1309944051728223
11,766,Cued,11,1,1,1,348,1,0.9831109505754659,0.016889049424534078
12,766,Cued,12,2,1,1,305,2,0.056968846779442694,0.9430311532205573
13,766,Cued,13,1,1,1,351,1,0.52621379451076,0.47378620548924
14,766,Cued,14,1,1,1,388,1,0.9738349364088326,0.026165063591167475
15,766,Cued,15,1,1,1,327,1,0.7091630878200325,0.29083691217996754
16,766,Cued,16,1,1,1,309,1,0.8981363364126029,0.10186366358739705
17,766,Cued,17,2,2,2,376,2,0.2538605201047227,0.7461394798952773
18,766,Cued,18,2,2,2,454,2,0.11691702511418822,0.8830829748858118
19,766,Cued,19,2,2,2,399,2,0.15238610909426675,0.8476138909057332
20,766,Cued,20,2,2,2,387,2,0.10416008836863111,0.8958399116313689
21,766,Cued,21,2,2,2,391,2,0.4153558577150587,0.5846441422849413
22,766,Cued,22,2,2,2,415,2,0.32206458331532517,0.6779354166846748
23,766,Cued,23,1,1,1,274,1,0.7715558724455094,0.22844412755449067
24,766,Cued,24,1,1,2,363,1,0.9584687629699664,0.04153123703003359
25,766,Cued,25,1,1,1,337,1,0.7024818090212541,0.2975181909787458
26,766,Cued,26,2,2,2,477,2,0.12375840527129689,0.8762415947287031
27,766,Cued,27,2,2,2,390,2,0.37338372237110784,0.6266162776288922
28,766,Cued,28,1,1,1,370,1,0.7248431311172676,0.2751568688827324
29,766,Cued,29,1,1,1,400,1,0.9529679017445434,0.047032098255456664
30,766,Cued,30,1,1,1,270,1,0.576283359518052,0.423716640481948
31,766,Cued,31,1,1,1,319,1,0.8680673035072283,0.13193269649277173
32,766,Cued,32,2,2,2,415,2,0.021959633902782216,0.9780403660972178
33,766,Cued,33,1,1,1,419,1,0.8099916122915807,0.19000838770841927
34,766,Cued,34,1,1,1,279,1,0.8298457766708911,0.17015422332910896
35,766,Cued,35,2,2,2,367,2,0.16548209233137168,0.8345179076686283
36,766,Cued,36,2,2,2,364,1,0.7979693002319276,0.20203069976807245
37,766,Cued,37,1,1,1,395,1,0.8254190998046396,0.17458090019536038
38,766,Cued,38,2,1,1,471,2,0.07271836599220605,0.927281634007794
39,766,Cued,39,1,1,1,471,1,0.8054644837172684,0.19453551628273164
40,766,Cued,40,1,2,2,553,1,0.6776276403157981,0.32237235968420186
41,766,Cued,41,2,2,2,382,2,0.09333450589572745,0.9066654941042726
42,766,Cued,42,2,2,2,386,2,0.20366343130562847,0.7963365686943715
43,766,Cued,43,1,1,1,330,1,0.7667028253133674,0.23329717468663252
44,766,Cued,44,1,1,1,302,1,0.8174038449541421,0.18259615504585788
45,766,Cued,45,1,1,1,446,1,0.9701555391137684,0.02984446088623157
46,766,Cued,46,2,2,2,420,2,0.013715326074261736,0.9862846739257383
47,766,Cued,47,2,2,2,367,2,0.21596360971760675,0.7840363902823932
48,766,Cued,48,2,2,2,382,2,0.3895433496125491,0.6104566503874509
49,766,Cued,49,1,2,1,596,1,0.8237719695984543,0.17622803040154564
50,766,Cued,50,2,2,2,388,2,0.05866974712572359,0.9413302528742764
51,766,Cued,51,1,1,1,312,2,0.4695140469651601,0.5304859530348399
52,766,Cued,52,2,1,2,359,2,0.0328024632604631,0.9671975367395369
53,766,Cued,53,1,1,1,532,1,0.8512907837415316,0.1487092162584684
54,766,Cued,54,1,1,1,339,1,0.7962866951231107,0.20371330487688938
55,766,Cued,55,1,1,1,334,1,0.9740870387484153,0.02591296125158466
56,766,Cued,56,1,2,2,516,1,0.7621231990279451,0.23787680097205485
57,766,Cued,57,1,1,1,574,1,0.8644595444497828,0.1355404555502172
58,766,Cued,58,2,2,2,379,2,0.09571530201122391,0.9042846979887761
59,766,Cued,59,2,2,2,379,2,0.16658868408996963,0.8334113159100304
60,766,Cued,60,2,2,2,357,2,0.45136312379740273,0.5486368762025973
61,766,Cued,61,1,1,1,247,1,0.9252687042930008,0.07473129570699924
62,766,Cued,62,1,2,2,488,2,0.3728118091899386,0.6271881908100614
63,766,Cued,63,1,2,1,370,1,0.9872142700523957,0.012785729947604272
64,766,Cued,64,1,1,1,331,1,0.9033350623477874,0.09666493765221268
65,766,Cued,65,1,1,1,353,1,0.8179273711970997,0.1820726288029003
66,766,Cued,66,1,1,1,334,1,0.9561654372987185,0.043834562701281554
67,766,Cued,67,2,2,2,373,2,0.29761625097977595,0.702383749020224
68,766,Cued,68,2,2,2,344,2,0.17077351665810658,0.8292264833418934
69,766,Cued,69,2,2,2,384,2,0.35604326451344437,0.6439567354865556
70,766,Cued,70,2,2,2,375,2,0.24665056583115208,0.7533494341688479
71,766,Cued,71,2,1,1,306,2,0.19473560801306167,0.8052643919869383
72,766,Cued,72,1,1,1,249,1,0.9550772890639598,0.04492271093604011
73,766,Cued,73,2,2,2,401,2,0.10060327312703465,0.8993967268729653
74,766,Cued,74,1,1,1,352,1,0.9669729313680636,0.03302706863193635
75,766,Cued,75,2,2,2,389,2,0.03689074889368271,0.9631092511063173
76,766,Cued,76,2,2,2,373,2,0.04770763993886751,0.9522923600611325
77,766,Cued,77,1,1,1,308,1,0.7691214883601964,0.23087851163980352
78,766,Cued,78,1,1,1,259,2,0.10924798485772658,0.8907520151422734
79,766,Cued,79,1,1,1,292,1,0.8360635784969791,0.16393642150302093
80,766,Cued,80,1,1,1,361,1,0.8380750016850712,0.1619249983149288
81,766,Cued,81,1,1,1,338,1,0.9323938428888828,0.06760615711111714
82,766,Cued,82,2,2,2,414,2,0.15398187107692962,0.8460181289230704
83,766,Cued,83,2,1,1,493,2,0.3440388069499728,0.6559611930500272
84,766,Cued,84,1,1,1,319,1,0.672093906983399,0.327906093016601
85,766,Cued,85,1,1,1,277,2,0.45394866937336653,0.5460513306266335
86,766,Cued,86,1,1,1,372,1,0.6533668038860199,0.3466331961139802
87,766,Cued,87,1,1,1,320,1,0.98541481971281,0.014585180287190056
88,766,Cued,88,2,2,2,375,2,0.11307141790587216,0.8869285820941278
89,766,Cued,89,2,2,2,462,2,0.3098981726524668,0.6901018273475332
90,766,Cued,90,2,2,2,503,2,0.32336617625777164,0.6766338237422284
91,766,Cued,91,2,2,2,503,2,0.08820883148582159,0.9117911685141784
92,766,Cued,92,1,1,1,399,1,0.9130937498623038,0.08690625013769611
93,766,Cued,93,2,2,2,504,2,0.15491244878371913,0.8450875512162809
94,766,Cued,94,2,2,2,398,2,0.32858890716883704,0.671411092831163
95,766,Cued,95,1,1,1,364,1,0.884714758767889,0.11528524123211098
96,766,Cued,96,2,2,2,408,2,0.07207209786422752,0.9279279021357725
97,766,Cued,97,1,2,2,518,1,0.6656451805638608,0.33435481943613926
98,766,Cued,98,1,2,2,505,1,0.71168743424174,0.28831256575826003
99,766,Cued,99,2,2,2,416,2,0.35943297325163037,0.6405670267483696
100,766,Cued,100,2,2,2,386,2,0.3117292034884984,0.6882707965115016
101,766,Cued,101,1,2,1,394,1,0.8957019006485503,0.10429809935144971
102,766,Cued,102,1,2,2,489,1,0.830410788199976,0.16958921180002398
103,766,Cued,103,1,1,1,397,1,0.9675689528323071,0.03243104716769281
104,766,Cued,104,2,2,2,467,2,0.15463417123555012,0.8453658287644499
105,766,Cued,105,2,1,1,486,2,0.1628911985273942,0.8371088014726058
106,766,Cued,106,2,2,2,561,2,0.06190172216215872,0.9380982778378413
107,766,Cued,107,2,2,2,399,1,0.5872732402725809,0.4127267597274191
108,766,Cued,108,1,1,1,402,1,0.950449963363073,0.04955003663692698
109,766,Cued,109,1,1,1,389,1,0.7335249984221217,0.26647500157787823
110,766,Cued,110,2,2,2,385,2,0.02033628706341495,0.979663712936585
111,766,Cued,111,2,1,1,503,2,0.10962972645923896,0.890370273540761
112,766,Cued,112,1,1,1,370,1,0.9463394614193937,0.05366053858060625
113,766,Cued,113,2,2,2,490,2,0.13552711057477884,0.8644728894252212
114,766,Cued,114,2,2,2,442,2,0.09973261719933812,0.9002673828006619
115,766,Cued,115,1,1,1,343,1,0.9910557802886513,0.0089442197113487
116,766,Cued,116,2,2,2,757,2,0.15803334286540083,0.8419666571345992
117,766,Cued,117,2,2,2,418,2,0.05093686820428189,0.9490631317957181
118,766,Cued,118,2,2,2,392,2,0.15154968240165334,0.8484503175983467
119,766,Cued,119,2,1,1,452,2,0.28402174834239635,0.7159782516576036
120,766,Cued,120,1,2,2,636,1,0.9184079682554449,0.08159203174455511
121,766,Cued,121,2,1,1,414,2,0.1435381283173205,0.8564618716826795
122,766,Cued,122,1,1,1,334,1,0.6807004328981254,0.31929956710187457
123,766,Cued,123,2,2,2,417,2,0.234653891393095,0.765346108606905
124,766,Cued,124,2,2,2,412,2,0.07445038256704617,0.9255496174329538
125,766,Cued,125,1,1,1,337,1,0.5184101780757778,0.4815898219242222
126,766,Cued,126,2,2,2,519,2,0.297322590243144,0.702677409756856
127,766,Cued,127,2,2,2,542,2,0.1241806757572298,0.8758193242427702
128,766,Cued,128,2,2,2,356,2,0.03546582191622294,0.9645341780837771
129,766,Cued,129,1,1,1,347,1,0.8211438086269548,0.1788561913730452
130,766,Cued,130,1,2,2,497,1,0.9219915737851866,0.07800842621481345
131,766,Cued,131,2,2,2,417,2,0.019901326438443,0.980098673561557
132,766,Cued,132,1,1,1,348,1,0.9011877183973341,0.09881228160266588
133,766,Cued,133,1,1,1,512,1,0.9587679905918923,0.04123200940810769
134,766,Cued,134,2,2,2,404,2,0.1530750822396677,0.8469249177603323
135,766,Cued,135,1,1,1,430,1,0.9801270857535057,0.019872914246494327
136,766,Cued,136,1,1,1,399,1,0.8515665316426055,0.14843346835739443
137,766,Cued,137,2,2,2,433,2,0.022225301928402663,0.9777746980715973
138,766,Cued,138,2,2,2,400,2,0.04447270511185841,0.9555272948881416
139,766,Cued,139,2,2,2,392,2,0.24408539648185734,0.7559146035181427
140,766,Cued,140,1,1,1,370,1,0.9944691654481577,0.005530834551842289
141,766,Cued,141,2,1,1,856,2,0.1938849724581848,0.8061150275418152
142,766,Cued,142,1,1,1,399,2,0.48341940678130957,0.5165805932186904
143,766,Cued,143,2,2,2,414,2,0.4022240277059378,0.5977759722940622
144,766,Cued,144,2,2,2,465,1,0.5420966452640106,0.45790335473598937
145,766,Cued,145,1,1,1,369,1,0.9785691164030074,0.021430883596992686
146,766,Cued,146,1,1,1,315,1,0.9891409733438286,0.01085902665617143
147,766,Cued,147,1,1,1,323,1,0.8141461736648602,0.18585382633513978
148,766,Cued,148,1,1,1,242,1,0.954901839607715,0.04509816039228501
149,766,Cued,149,1,1,1,375,1,0.7092207820743707,0.29077921792562933
150,766,Cued,150,2,2,2,356,2,0.0456334891947584,0.9543665108052416
151,766,Cued,151,2,2,2,379,1,0.7202496872518482,0.27975031274815176
152,766,Cued,152,1,1,1,311,1,0.6683687195086357,0.33163128049136426
153,766,Cued,153,2,2,2,380,2,0.07219791737766379,0.9278020826223362
154,766,Cued,154,2,2,2,376,1,0.5051531639701805,0.49484683602981944
155,766,Cued,155,2,2,2,397,2,0.022605873578910418,0.9773941264210896
156,766,Cued,156,1,1,1,385,2,0.471966400684779,0.528033599315221
157,766,Cued,157,2,1,1,519,2,0.36048149770007865,0.6395185022999214
158,766,Cued,158,1,2,2,526,1,0.6580838513367351,0.3419161486632649
159,766,Cued,159,2,2,2,525,2,0.18679284039608657,0.8132071596039134
160,766,Cued,160,2,2,2,432,1,0.7152808558465549,0.2847191441534451
161,766,Cued,161,1,1,1,338,1,0.5711836473921591,0.4288163526078409
162,766,Cued,162,1,1,1,330,2,0.4066887217562264,0.5933112782437736
163,766,Cued,163,1,1,1,344,1,0.842255750933061,0.15774424906693893
164,766,Cued,164,1,2,2,550,1,0.7982935398381595,0.2017064601618405
165,766,Cued,165,2,2,2,398,2,0.18561264180823567,0.8143873581917643
166,766,Cued,166,1,2,2,620,1,0.9416676474844122,0.05833235251558778
167,766,Cued,167,1,2,2,478,1,0.8234259337032874,0.17657406629671257
168,766,Cued,168,2,2,2,416,2,0.389118432722683,0.610881567277317
169,766,Cued,169,2,2,2,515,2,0.09871636088754598,0.901283639112454
170,766,Cued,170,1,1,1,426,1,0.7969515880768421,0.20304841192315798
171,766,Cued,171,2,2,2,423,2,0.41530269961087074,0.5846973003891293
172,766,Cued,172,1,1,1,377,1,0.8319087940009652,0.1680912059990348
173,766,Cued,173,1,1,1,406,1,0.9931268428713695,0.0068731571286304175
174,766,Cued,174,2,1,1,474,2,0.27207350294252386,0.7279264970574761
175,766,Cued,175,2,2,2,675,2,0.26845558606956266,0.7315444139304373
176,766,Cued,176,2,2,2,484,2,0.2156067758027771,0.7843932241972229
177,766,Cued,177,1,1,1,294,1,0.7257778532005272,0.27422214679947277
178,766,Cued,178,2,1,1,437,2,0.14702300027519488,0.8529769997248051
179,766,Cued,179,2,2,2,449,2,0.1942190895369299,0.8057809104630701
180,766,Cued,180,2,2,2,406,2,0.15512561303164518,0.8448743869683548
181,766,Cued,181,1,1,1,300,1,0.989787685157609,0.010212314842390997
182,766,Cued,182,2,1,1,450,2,0.02214070856256023,0.9778592914374398
183,766,Cued,183,2,2,2,440,2,0.17496096701563102,0.825039032984369
184,766,Cued,184,1,1,1,318,1,0.8673514763997009,0.1326485236002991
185,766,Cued,185,2,2,2,401,1,0.7328038098333141,0.267196190166686
186,766,Cued,186,1,1,1,323,1,0.7551573180391181,0.2448426819608819
187,766,Cued,187,1,1,1,280,1,0.9253724009076605,0.07462759909233951
188,766,Cued,188,2,2,2,386,2,0.3192405955516211,0.6807594044483789
189,766,Cued,189,1,1,1,317,1,0.8242137288883671,0.17578627111163292
190,766,Cued,190,2,1,1,498,2,0.26591469595925676,0.7340853040407432
191,766,Cued,191,1,1,1,367,2,0.34853550039700343,0.6514644996029966
192,766,Cued,192,1,1,1,416,1,0.6284276364863328,0.37157236351366724
193,766,Cued,193,1,1,1,269,1,0.7433166676782121,0.2566833323217878
194,766,Cued,194,1,1,1,325,1,0.7128189890235936,0.28718101097640636
195,766,Cued,195,1,1,1,435,1,0.8046230966932072,0.19537690330679283
196,766,Cued,196,2,2,2,509,2,0.21771410596459295,0.782285894035407
197,766,Cued,197,1,1,1,412,1,0.7774208225522873,0.22257917744771272
198,766,Cued,198,2,1,1,565,2,0.17390751694064754,0.8260924830593525
199,766,Cued,199,2,2,2,425,2,0.038983619423474836,0.9610163805765252
200,766,Cued,200,2,2,2,373,2,0.35415263232441896,0.645847367675581
201,766,Cued,201,1,1,1,314,1,0.9277614213677658,0.07223857863223418
202,766,Cued,202,2,2,2,495,1,0.5784194664775495,0.4215805335224505
203,766,Cued,203,1,1,1,352,1,0.9547904804659136,0.04520951953408637
204,766,Cued,204,2,1,1,413,2,0.1040994123252027,0.8959005876747973
205,766,Cued,205,2,2,2,440,2,0.4347425615906473,0.5652574384093527
206,766,Cued,206,2,2,2,465,2,0.08446580395480296,0.915534196045197
207,766,Cued,207,1,1,1,304,1,0.8733224412094334,0.12667755879056658
208,766,Cued,208,2,2,2,440,2,0.06352433524114554,0.9364756647588545
209,766,Cued,209,2,2,2,427,2,0.2745565887262369,0.7254434112737631
210,766,Cued,210,2,2,2,525,2,0.49107554183443114,0.5089244581655689
211,766,Cued,211,2,2,2,388,2,0.19556329278089302,0.804436707219107
212,766,Cued,212,1,1,1,395,1,0.8916208248713294,0.10837917512867053
213,766,Cued,213,2,1,1,386,2,0.250687002021883,0.749312997978117
214,766,Cued,214,1,2,2,497,1,0.9549279341591307,0.04507206584086936
215,766,Cued,215,1,1,1,585,1,0.7077012794753594,0.29229872052464057
216,766,Cued,216,2,2,2,408,2,0.027807608854318322,0.9721923911456817
217,766,Cued,217,2,2,1,450,2,0.13652293433073392,0.8634770656692661
218,766,Cued,218,2,2,2,416,2,0.24984905493293952,0.7501509450670605
219,766,Cued,219,1,1,1,322,2,0.2361109567054367,0.7638890432945633
220,766,Cued,220,2,1,1,460,1,0.8134530242195153,0.1865469757804847
221,766,Cued,221,1,2,2,513,1,0.8982851541749421,0.1017148458250578
222,766,Cued,222,2,2,2,396,1,0.6022152796592171,0.3977847203407829
223,766,Cued,223,1,2,2,501,1,0.8650554324827797,0.13494456751722023
224,766,Cued,224,1,1,1,363,1,0.9506899021251557,0.049310097874844284
225,766,Cued,225,2,2,2,384,2,0.33434075736693436,0.6656592426330656
226,766,Cued,226,1,1,1,395,1,0.9634184488618385,0.03658155113816157
227,766,Cued,227,1,1,1,373,2,0.34816062370952605,0.651839376290474
228,766,Cued,228,1,1,1,351,2,0.25332709500647044,0.7466729049935296
229,766,Cued,229,1,1,1,348,1,0.6713573450542875,0.32864265494571254
230,766,Cued,230,2,2,2,366,2,0.07751432934473679,0.9224856706552632
231,766,Cued,231,1,1,1,435,1,0.9679689400618074,0.03203105993819258
232,766,Cued,232,2,2,2,401,2,0.14653160065046578,0.8534683993495342
233,766,Cued,233,1,1,1,306,1,0.9031505910117723,0.09684940898822775
234,766,Cued,234,1,2,2,494,1,0.9054603678692323,0.09453963213076763
235,766,Cued,235,1,1,1,380,1,0.9364470660196889,0.06355293398031112
236,766,Cued,236,1,2,2,624,1,0.6716433617020114,0.32835663829798856
237,766,Cued,237,1,1,1,683,1,0.8898688494532331,0.11013115054676689
238,766,Cued,238,1,1,1,347,1,0.840337784058097,0.15966221594190302
239,766,Cued,239,1,1,1,331,1,0.8560331188394867,0.14396688116051332
0,661,Cued,0,1,1,1,420,1,0.871245534152527,0.12875446584747294
1,661,Cued,1,1,1,1,312,1,0.8525133672137452,0.14748663278625482
2,661,Cued,2,1,1,1,361,1,0.5520483668645009,0.4479516331354991
3,661,Cued,3,2,2,2,438,2,0.12505237066839792,0.8749476293316021
4,661,Cued,4,2,2,2,511,2,0.3779756940394752,0.6220243059605248
5,661,Cued,5,2,2,2,453,2,0.05921203940867337,0.9407879605913266
6,661,Cued,6,2,2,2,488,2,0.22763652390007638,0.7723634760999236
7,661,Cued,7,1,1,1,321,1,0.6613840827274597,0.3386159172725403
8,661,Cued,8,1,1,1,359,1,0.541085557941138,0.458914442058862
9,661,Cued,9,2,2,2,468,2,0.017241010405423807,0.9827589895945762
10,661,Cued,10,1,1,1,503,1,0.8654251235874081,0.13457487641259194
11,661,Cued,11,2,2,2,574,2,0.18282630973659353,0.8171736902634065
12,661,Cued,12,1,1,1,432,1,0.9464145157294279,0.05358548427057203
13,661,Cued,13,2,1,1,484,1,0.7541758348797702,0.24582416512022973
14,661,Cued,14,2,2,2,517,1,0.5775048058869678,0.4224951941130322
15,661,Cued,15,1,2,2,538,1,0.6831359956744092,0.31686400432559075
16,661,Cued,16,2,2,2,501,2,0.4839625828542502,0.5160374171457498
17,661,Cued,17,1,1,1,360,1,0.6196611761830014,0.3803388238169986
18,661,Cued,18,2,2,2,470,2,0.4636651083700477,0.5363348916299523
19,661,Cued,19,1,1,1,411,1,0.7470461479503709,0.25295385204962906
20,661,Cued,20,2,2,2,571,2,0.12396131119187503,0.876038688808125
21,661,Cued,21,1,1,1,375,1,0.7796891364725748,0.2203108635274252
22,661,Cued,22,1,1,1,327,1,0.8392967455833928,0.16070325441660718
23,661,Cued,23,1,1,1,318,1,0.7062374958029648,0.2937625041970352
24,661,Cued,24,1,1,1,370,1,0.824284652036932,0.17571534796306792
25,661,Cued,25,2,1,1,467,2,0.3281760680648631,0.6718239319351369
26,661,Cued,26,1,1,1,379,1,0.9656048656009826,0.03439513439901743
27,661,Cued,27,1,1,1,385,1,0.9683090094273799,0.03169099057262015
28,661,Cued,28,2,2,2,445,1,0.5932455415114684,0.4067544584885316
29,661,Cued,29,2,2,2,439,1,0.5362715884435756,0.4637284115564244
30,661,Cued,30,1,2,2,514,1,0.772005900228409,0.22799409977159096
31,661,Cued,31,1,1,1,579,1,0.9105957457493502,0.08940425425064975
32,661,Cued,32,2,2,2,462,2,0.12077008130867273,0.8792299186913273
33,661,Cued,33,1,1,1,409,1,0.806638855088617,0.19336114491138306
34,661,Cued,34,1,1,1,352,2,0.48923186527993134,0.5107681347200687
35,661,Cued,35,1,1,1,541,1,0.7634331985697456,0.2365668014302545
36,661,Cued,36,1,1,1,339,1,0.605622984809969,0.394377015190031
37,661,Cued,37,1,1,1,357,1,0.7782247154710535,0.22177528452894646
38,661,Cued,38,2,2,2,417,2,0.380336979012185,0.619663020987815
39,661,Cued,39,1,1,1,357,1,0.6540390903410653,0.3459609096589346
40,661,Cued,40,2,2,2,442,2,0.052034116101151384,0.9479658838988486
41,661,Cued,41,2,2,2,421,2,0.0855073132484121,0.9144926867515879
42,661,Cued,42,2,1,1,448,2,0.1409887535156532,0.8590112464843468
43,661,Cued,43,1,1,1,330,1,0.7074674026418385,0.2925325973581615
44,661,Cued,44,1,1,1,335,2,0.3070212890671059,0.6929787109328941
45,661,Cued,45,1,1,1,385,1,0.9674290489703732,0.03257095102962682
46,661,Cued,46,1,1,1,373,1,0.6056227050053986,0.39437729499460145
47,661,Cued,47,1,1,1,330,1,0.7985178494009315,0.20148215059906846
48,661,Cued,48,2,2,2,402,2,0.1366484197501906,0.8633515802498094
