,Subject,Condition,Trial,Cue,Stimulus,Response,RT,Estimated class,Proba 0,Proba 1
0,pilot3,Uncued,0,0,1,1,444,2,0.30764969300572453,0.6923503069942755
1,pilot3,Uncued,1,0,2,2,391,2,0.44795415069276057,0.5520458493072394
2,pilot3,Uncued,2,0,2,2,458,2,0.21654744440803975,0.7834525555919603
3,pilot3,Uncued,3,0,1,1,540,1,0.9805817394864815,0.01941826051351842
4,pilot3,Uncued,4,0,1,1,418,1,0.7680136726838224,0.23198632731617763
5,pilot3,Uncued,5,0,2,2,580,1,0.952371448058234,0.04762855194176593
6,pilot3,Uncued,6,0,2,2,624,1,0.9556756860587416,0.0443243139412583
7,pilot3,Uncued,7,0,2,2,400,1,0.9929617737357864,0.00703822626421358
8,pilot3,Uncued,8,0,1,1,490,1,0.9608594629621916,0.03914053703780839
9,pilot3,Uncued,9,0,1,1,451,2,0.0008274784856612261,0.9991725215143388
10,pilot3,Uncued,10,0,1,1,524,1,0.9966659588207706,0.0033340411792294445
11,pilot3,Uncued,11,0,1,1,499,2,0.09341261272101631,0.9065873872789837
12,pilot3,Uncued,12,0,1,1,388,2,0.4427103982355497,0.5572896017644503
13,pilot3,Uncued,13,0,1,1,448,1,0.9210319402135149,0.07896805978648516
14,pilot3,Uncued,14,0,2,2,471,1,0.9998064277626769,0.00019357223732306098
15,pilot3,Uncued,15,0,1,1,429,2,0.009413594743175047,0.990586405256825
16,pilot3,Uncued,16,0,2,2,599,2,0.2533796387661189,0.7466203612338811
17,pilot3,Uncued,17,0,1,1,368,2,0.32690268120569255,0.6730973187943075
18,pilot3,Uncued,18,0,1,1,420,2,0.08071696520365079,0.9192830347963492
19,pilot3,Uncued,19,0,1,1,446,1,0.9920164817844793,0.007983518215520725
20,pilot3,Uncued,20,0,2,1,573,1,0.9896703824061074,0.010329617593892563
21,pilot3,Uncued,21,0,1,1,561,1,0.9902168293346534,0.009783170665346655
22,pilot3,Uncued,22,0,2,2,543,1,0.9999888504493244,1.1149550675566706e-05
23,pilot3,Uncued,23,0,1,1,477,1,0.9305320952956233,0.06946790470437673
24,pilot3,Uncued,24,0,2,2,450,1,0.998594881802921,0.0014051181970789752
25,pilot3,Uncued,25,0,2,2,543,1,0.9743856554636523,0.025614344536347717
26,pilot3,Uncued,26,0,2,2,542,2,0.18915127229006812,0.8108487277099319
27,pilot3,Uncued,27,0,2,2,483,2,0.06106474528274353,0.9389352547172565
28,pilot3,Uncued,28,0,2,2,429,2,0.07961159101605486,0.9203884089839451
29,pilot3,Uncued,29,0,1,1,518,1,0.6197695003534462,0.38023049964655375
30,pilot3,Uncued,30,0,1,1,444,1,0.8008077821984803,0.19919221780151977
31,pilot3,Uncued,31,0,1,1,406,1,0.9474582721365397,0.05254172786346032
32,pilot3,Uncued,32,0,2,2,473,2,0.07221740006470967,0.9277825999352903
33,pilot3,Uncued,33,0,1,1,746,1,0.6659634054208246,0.3340365945791754
34,pilot3,Uncued,34,0,1,1,492,1,0.9784333516594081,0.02156664834059182
35,pilot3,Uncued,35,0,2,2,554,1,0.5948580233887654,0.40514197661123463
36,pilot3,Uncued,36,0,1,1,529,1,0.9395140330325181,0.060485966967481875
37,pilot3,Uncued,37,0,2,2,467,2,0.05537628304898934,0.9446237169510107
38,pilot3,Uncued,38,0,1,1,476,2,0.44519236994911227,0.5548076300508877
39,pilot3,Uncued,39,0,2,2,619,2,0.029954865989683,0.970045134010317
40,pilot3,Uncued,40,0,2,2,437,1,0.9972817215148561,0.002718278485143905
41,pilot3,Uncued,41,0,1,1,415,2,0.014871793257135835,0.9851282067428642
42,pilot3,Uncued,42,0,2,2,493,2,0.021260343731986264,0.9787396562680137
43,pilot3,Uncued,43,0,1,1,478,1,0.889663316648909,0.110336683351091
44,pilot3,Uncued,44,0,2,2,632,2,0.1675178738271519,0.8324821261728481
45,pilot3,Uncued,45,0,2,2,494,1,0.9103621395816626,0.0896378604183374
46,pilot3,Uncued,46,0,1,1,511,2,0.0715219837237594,0.9284780162762406
47,pilot3,Uncued,47,0,1,1,417,1,0.9913084625206655,0.008691537479334498
48,pilot3,Uncued,48,0,1,1,512,2,0.030670044300526556,0.9693299556994734
49,pilot3,Uncued,49,0,1,1,470,2,0.3487823765242294,0.6512176234757706
50,pilot3,Uncued,50,0,1,1,433,1,0.9944530770506558,0.00554692294934423
51,pilot3,Uncued,51,0,1,1,370,2,0.20455446729482019,0.7954455327051798
52,pilot3,Uncued,52,0,1,1,534,1,0.8700218413211285,0.1299781586788715
53,pilot3,Uncued,53,0,2,2,533,1,0.950018605564733,0.049981394435266946
54,pilot3,Uncued,54,0,2,2,594,2,2.3045999812842943e-05,0.9999769540001872
55,pilot3,Uncued,55,0,1,1,582,2,0.06320094315124591,0.9367990568487541
56,pilot3,Uncued,56,0,2,2,534,1,0.997124123685173,0.002875876314826995
57,pilot3,Uncued,57,0,2,2,502,2,0.00846951128545026,0.9915304887145497
58,pilot3,Uncued,58,0,2,2,605,1,0.985877097488512,0.014122902511487985
59,pilot3,Uncued,59,0,1,1,542,1,0.9987301506658196,0.0012698493341803804
60,pilot3,Uncued,60,0,2,2,492,2,3.5197181788015897e-06,0.9999964802818212
61,pilot3,Uncued,61,0,2,2,436,2,0.06245711973086299,0.937542880269137
62,pilot3,Uncued,62,0,1,1,509,1,0.9991341680494689,0.0008658319505311375
63,pilot3,Uncued,63,0,2,2,650,1,0.9999889546376076,1.1045362392341345e-05
64,pilot3,Uncued,64,0,2,2,493,1,0.998878811639719,0.0011211883602809825
65,pilot3,Uncued,65,0,2,2,486,1,0.8115670676625116,0.18843293233748837
66,pilot3,Uncued,66,0,2,2,525,1,0.9974921804910055,0.0025078195089944326
67,pilot3,Uncued,67,0,2,2,443,2,4.237102633941614e-05,0.9999576289736606
68,pilot3,Uncued,68,0,2,2,564,1,0.9388887928834216,0.06111120711657835
69,pilot3,Uncued,69,0,1,1,552,2,0.009536761464417065,0.9904632385355829
70,pilot3,Uncued,70,0,1,1,455,1,0.6088558520798439,0.39114414792015606
71,pilot3,Uncued,71,0,1,1,585,1,0.9747681113367425,0.025231888663257533
72,pilot3,Uncued,72,0,1,1,540,2,0.4181249651964807,0.5818750348035193
73,pilot3,Uncued,73,0,2,1,571,1,0.999448666560525,0.0005513334394749795
74,pilot3,Uncued,74,0,1,1,520,1,0.9999999686041573,3.139584271350256e-08
75,pilot3,Uncued,75,0,1,1,478,1,0.9965005955158348,0.003499404484165173
76,pilot3,Uncued,76,0,1,1,495,2,0.004616883697578178,0.9953831163024218
77,pilot3,Uncued,77,0,2,2,466,2,0.029659534767511708,0.9703404652324883
78,pilot3,Uncued,78,0,1,1,471,1,0.543468223498641,0.456531776501359
79,pilot3,Uncued,79,0,1,1,475,2,6.483885031016712e-05,0.9999351611496898
80,pilot3,Uncued,80,0,1,1,619,1,0.9101366519073478,0.08986334809265221
81,pilot3,Uncued,81,0,1,1,462,1,0.9999962279308059,3.772069194125379e-06
82,pilot3,Uncued,82,0,2,2,471,1,0.7011405714501724,0.2988594285498276
83,pilot3,Uncued,83,0,1,1,479,2,0.4818214411420133,0.5181785588579867
84,pilot3,Uncued,84,0,2,2,470,1,0.9983667315815128,0.0016332684184872353
85,pilot3,Uncued,85,0,2,2,638,2,0.005745163482400062,0.9942548365175999
86,pilot3,Uncued,86,0,2,2,519,1,0.9987071408970055,0.001292859102994457
87,pilot3,Uncued,87,0,1,1,539,1,0.9973417123458771,0.0026582876541229555
88,pilot3,Uncued,88,0,1,1,616,2,0.007776946740567836,0.9922230532594322
89,pilot3,Uncued,89,0,2,2,518,1,0.9964694344221454,0.003530565577854638
90,pilot3,Uncued,90,0,2,2,570,2,0.0001660973215862338,0.9998339026784138
91,pilot3,Uncued,91,0,1,1,483,1,0.9999225772573387,7.742274266134417e-05
92,pilot3,Uncued,92,0,2,2,455,1,0.6949377089799325,0.3050622910200676
93,pilot3,Uncued,93,0,1,1,518,1,0.9999415864273982,5.841357260183142e-05
94,pilot3,Uncued,94,0,1,1,477,1,0.9954498003416021,0.004550199658397821
95,pilot3,Uncued,95,0,1,1,437,2,0.010503397355312805,0.9894966026446872
96,pilot3,Uncued,96,0,2,2,503,2,0.26942632773880726,0.7305736722611927
97,pilot3,Uncued,97,0,1,1,475,2,0.04988698330826202,0.950113016691738
98,pilot3,Uncued,98,0,2,2,849,1,0.9991637358676444,0.0008362641323556222
99,pilot3,Uncued,99,0,2,2,466,1,0.9922654963917086,0.007734503608291379
100,pilot3,Uncued,100,0,2,2,481,1,0.9999916632068357,8.336793164226148e-06
101,pilot3,Uncued,101,0,1,1,681,1,0.9987261864473843,0.00127381355261574
102,pilot3,Uncued,102,0,2,2,633,1,0.9989461616234648,0.0010538383765351248
103,pilot3,Uncued,103,0,1,1,570,1,0.9942830257125793,0.005716974287420694
104,pilot3,Uncued,104,0,2,2,583,1,0.9675162186096506,0.03248378139034933
105,pilot3,Uncued,105,0,2,2,463,1,0.9998805248885134,0.00011947511148662031
106,pilot3,Uncued,106,0,1,1,505,1,0.999999999998624,1.3759988444773645e-12
107,pilot3,Uncued,107,0,1,1,476,1,0.9999614500657102,3.854993428979232e-05
108,pilot3,Uncued,108,0,2,2,739,1,0.9643134681711673,0.03568653182883276
109,pilot3,Uncued,109,0,1,1,640,1,0.9999993893888166,6.106111834017722e-07
110,pilot3,Uncued,110,0,2,2,548,1,0.9999744103964551,2.5589603544905417e-05
111,pilot3,Uncued,111,0,1,1,529,2,0.0342773215733323,0.9657226784266677
112,pilot3,Uncued,112,0,2,2,702,1,0.9998446330488082,0.00015536695119175838
113,pilot3,Uncued,113,0,1,1,607,1,0.9582716996320335,0.04172830036796653
114,pilot3,Uncued,114,0,2,2,650,2,0.10881275340907859,0.8911872465909214
115,pilot3,Uncued,115,0,2,2,545,1,0.9912937131557428,0.008706286844257265
116,pilot3,Uncued,116,0,1,1,478,1,0.9942965665879343,0.005703433412065701
117,pilot3,Uncued,117,0,1,1,550,1,0.9988874631815646,0.001112536818435331
118,pilot3,Uncued,118,0,1,1,507,1,0.8747756710935612,0.1252243289064388
119,pilot3,Uncued,119,0,1,1,522,1,0.9923956257153168,0.0076043742846831405
120,pilot3,Uncued,120,0,1,1,561,1,0.9687526539142743,0.031247346085725644
121,pilot3,Uncued,121,0,1,1,550,1,0.5829173583168216,0.41708264168317843
122,pilot3,Uncued,122,0,2,2,604,2,0.0544696495622774,0.9455303504377226
123,pilot3,Uncued,123,0,1,1,551,1,0.9772207967839556,0.022779203216044423
124,pilot3,Uncued,124,0,2,2,496,2,0.014727932240088726,0.9852720677599113
125,pilot3,Uncued,125,0,2,2,701,1,0.5691439833140899,0.43085601668591017
126,pilot3,Uncued,126,0,1,1,540,1,0.994849524179745,0.005150475820254963
127,pilot3,Uncued,127,0,2,2,618,1,0.7795223824912977,0.2204776175087023
128,pilot3,Uncued,128,0,1,1,446,1,0.9910835942044331,0.008916405795566885
129,pilot3,Uncued,129,0,1,1,486,1,0.999376021127143,0.0006239788728569808
130,pilot3,Uncued,130,0,2,2,614,2,0.10799033992250362,0.8920096600774964
131,pilot3,Uncued,131,0,2,2,567,1,0.7950627862560988,0.20493721374390123
132,pilot3,Uncued,132,0,2,2,486,1,0.9870142828567473,0.012985717143252655
133,pilot3,Uncued,133,0,1,1,548,1,0.9996531971282167,0.0003468028717832942
134,pilot3,Uncued,134,0,2,2,670,1,0.9562931178865165,0.043706882113483496
135,pilot3,Uncued,135,0,2,2,464,2,0.0883677704422231,0.9116322295577769
136,pilot3,Uncued,136,0,2,2,518,1,0.954453106881627,0.04554689311837298
137,pilot3,Uncued,137,0,2,2,458,1,0.9034320612505781,0.09656793874942189
138,pilot3,Uncued,138,0,2,2,590,2,0.0020214808061495004,0.9979785191938505
139,pilot3,Uncued,139,0,1,1,509,1,0.8781390186688424,0.1218609813311576
140,pilot3,Uncued,140,0,2,2,534,1,0.9991867951169662,0.0008132048830338766
141,pilot3,Uncued,141,0,1,1,513,2,0.16506622282325634,0.8349337771767437
142,pilot3,Uncued,142,0,1,1,406,1,0.559770380774576,0.4402296192254241
143,pilot3,Uncued,143,0,2,2,715,2,0.016314950502098968,0.983685049497901
144,pilot3,Uncued,144,0,1,1,433,1,0.9999984611821419,1.5388178581687317e-06
145,pilot3,Uncued,145,0,2,2,571,2,0.14341275283672839,0.8565872471632716
146,pilot3,Uncued,146,0,1,1,532,1,0.5759876740223453,0.42401232597765476
147,pilot3,Uncued,147,0,2,2,437,1,0.8103106985343943,0.18968930146560567
148,pilot3,Uncued,148,0,2,2,537,1,0.999807225718064,0.00019277428193594526
149,pilot3,Uncued,149,0,1,1,518,1,0.9826244078298303,0.017375592170169755
150,pilot3,Uncued,150,0,1,1,570,1,0.8241320583503737,0.1758679416496262
151,pilot3,Uncued,151,0,2,2,510,1,0.846393616903784,0.15360638309621605
152,pilot3,Uncued,152,0,1,1,453,2,0.004526841472750731,0.9954731585272493
153,pilot3,Uncued,153,0,1,1,536,2,0.03421724523159564,0.9657827547684044
154,pilot3,Uncued,154,0,2,2,621,2,0.3628766648749595,0.6371233351250405
155,pilot3,Uncued,155,0,1,1,592,2,0.13059524223905894,0.8694047577609411
156,pilot3,Uncued,156,0,2,2,612,2,0.4046692460232294,0.5953307539767706
157,pilot3,Uncued,157,0,1,1,408,2,0.07438676709100167,0.9256132329089983
158,pilot3,Uncued,158,0,1,2,403,1,0.9987273194007256,0.0012726805992744228
159,pilot3,Uncued,159,0,1,1,454,2,0.3756908765258381,0.6243091234741619
160,pilot3,Uncued,160,0,1,1,888,1,0.9305198288956635,0.06948017110433646
161,pilot3,Uncued,161,0,2,2,561,1,0.9937517205602984,0.0062482794397016655
162,pilot3,Uncued,162,0,2,2,566,2,0.10439008891703694,0.8956099110829631
163,pilot3,Uncued,163,0,2,2,538,1,0.986516107328544,0.013483892671455952
164,pilot3,Uncued,164,0,1,1,464,1,0.9244968700936762,0.07550312990632381
165,pilot3,Uncued,165,0,2,2,937,1,0.9661874045991321,0.03381259540086787
166,pilot3,Uncued,166,0,1,1,415,2,0.22352471846639388,0.7764752815336061
167,pilot3,Uncued,167,0,2,2,522,2,0.4349324306613548,0.5650675693386452
168,pilot3,Uncued,168,0,2,2,545,1,0.8821252285880539,0.11787477141194609
169,pilot3,Uncued,169,0,1,1,471,1,0.5360343986284359,0.46396560137156406
170,pilot3,Uncued,170,0,2,2,488,1,0.9230490254704097,0.07695097452959031
171,pilot3,Uncued,171,0,2,2,650,1,0.9840162037528578,0.01598379624714219
172,pilot3,Uncued,172,0,2,2,436,1,0.8001296923123392,0.19987030768766076
173,pilot3,Uncued,173,0,2,2,431,1,0.9964278673325506,0.0035721326674493263
174,pilot3,Uncued,174,0,1,1,512,2,0.22499048639517927,0.7750095136048207
175,pilot3,Uncued,175,0,1,1,624,1,0.552712517609836,0.4472874823901641
176,pilot3,Uncued,176,0,2,2,531,1,0.6766556299023015,0.32334437009769845
177,pilot3,Uncued,177,0,1,1,538,1,0.9985256656119165,0.0014743343880835062
178,pilot3,Uncued,178,0,2,2,440,1,0.9116007316345887,0.08839926836541134
179,pilot3,Uncued,179,0,2,2,610,1,0.707859067165947,0.2921409328340529
0,136,Uncued,0,0,2,2,481,2,0.08939109571362858,0.9106089042863714
1,136,Uncued,1,0,2,2,512,2,0.45431164741854246,0.5456883525814575
2,136,Uncued,2,0,2,2,489,2,0.44928470297897405,0.550715297021026
3,136,Uncued,3,0,1,1,488,2,0.4316668035630141,0.5683331964369859
4,136,Uncued,4,0,1,1,446,1,0.9424506894389781,0.05754931056102188
5,136,Uncued,5,0,2,2,512,1,0.9894800564611533,0.010519943538846643
6,136,Uncued,6,0,2,2,556,1,0.8396035398149923,0.16039646018500772
7,136,Uncued,7,0,2,2,643,2,0.4793441268352344,0.5206558731647656
8,136,Uncued,8,0,2,2,881,2,0.1499270371580126,0.8500729628419874
9,136,Uncued,9,0,1,1,553,2,0.022896384495557753,0.9771036155044422
10,136,Uncued,10,0,1,1,454,1,0.5257821404744768,0.4742178595255232
11,136,Uncued,11,0,2,2,680,1,0.7881414961683842,0.21185850383161578
12,136,Uncued,12,0,1,1,352,1,0.5000383709684143,0.4999616290315857
13,136,Uncued,13,0,1,1,404,2,0.46012033064461577,0.5398796693553842
14,136,Uncued,14,0,1,1,350,2,0.32866541798367743,0.6713345820163226
15,136,Uncued,15,0,2,2,559,2,0.11305608546179724,0.8869439145382028
16,136,Uncued,16,0,1,1,369,2,0.1171097627821065,0.8828902372178935
17,136,Uncued,17,0,2,2,472,1,0.915049903622073,0.0849500963779271
18,136,Uncued,18,0,2,2,481,2,0.24899166014982987,0.7510083398501701
19,136,Uncued,19,0,1,1,416,1,0.9042661466527772,0.0957338533472228
20,136,Uncued,20,0,1,1,563,1,0.9042761131329217,0.09572388686707832
21,136,Uncued,21,0,2,2,464,1,0.5902860634879841,0.40971393651201593
22,136,Uncued,22,0,1,1,327,1,0.5116297448546729,0.488370255145327
23,136,Uncued,23,0,1,1,415,1,0.8035490809871015,0.19645091901289843
24,136,Uncued,24,0,1,1,438,2,0.38915837496090555,0.6108416250390944
25,136,Uncued,25,0,1,1,463,2,0.45696244246592155,0.5430375575340785
26,136,Uncued,26,0,1,1,444,2,0.4192851947783165,0.5807148052216835
27,136,Uncued,27,0,1,1,531,2,0.2232757749435802,0.7767242250564198
28,136,Uncued,28,0,2,2,760,1,0.8460207643301607,0.15397923566983931
29,136,Uncued,29,0,1,1,405,1,0.7341740257053633,0.2658259742946368
30,136,Uncued,30,0,1,1,472,2,0.311769613980586,0.688230386019414
31,136,Uncued,31,0,2,2,823,1,0.9879571885575013,0.012042811442498745
32,136,Uncued,32,0,1,1,440,2,0.15736102654552808,0.8426389734544719
33,136,Uncued,33,0,1,1,450,1,0.9314938743179798,0.06850612568202015
34,136,Uncued,34,0,2,2,539,2,0.06905811646272175,0.9309418835372782
35,136,Uncued,35,0,2,2,517,2,0.2526077855240336,0.7473922144759664
36,136,Uncued,36,0,1,1,499,1,0.5773664316687925,0.4226335683312075
37,136,Uncued,37,0,1,1,410,2,0.490520350670283,0.509479649329717
38,136,Uncued,38,0,2,2,518,1,0.6323191636496788,0.36768083635032117
39,136,Uncued,39,0,2,1,512,1,0.9622048801078393,0.037795119892160646
40,136,Uncued,40,0,2,2,791,2,0.05088116435930379,0.9491188356406962
41,136,Uncued,41,0,1,1,413,2,0.22799312764308888,0.7720068723569111
42,136,Uncued,42,0,2,2,472,2,0.41866872872344607,0.5813312712765539
43,136,Uncued,43,0,1,1,369,1,0.5695645105705178,0.4304354894294822
44,136,Uncued,44,0,2,2,565,1,0.7276541895469022,0.27234581045309786
45,136,Uncued,45,0,1,1,553,1,0.7685651122245224,0.23143488777547763
46,136,Uncued,46,0,2,2,483,1,0.7609406097498037,0.23905939025019626
47,136,Uncued,47,0,2,2,578,1,0.7562912242012526,0.2437087757987474
48,136,Uncued,48,0,1,1,528,2,0.3529030114461792,0.6470969885538208
49,136,Uncued,49,0,2,2,847,1,0.5432971606020905,0.45670283939790945
50,136,Uncued,50,0,2,2,969,2,0.11034339316103703,0.889656606838963
51,136,Uncued,51,0,2,2,833,1,0.9099741389323633,0.09002586106763667
52,136,Uncued,52,0,2,2,624,2,0.16908433297634817,0.8309156670236518
53,136,Uncued,53,0,1,1,426,1,0.8325755910228875,0.16742440897711253
54,136,Uncued,54,0,2,2,742,1,0.8214993698394368,0.1785006301605632
55,136,Uncued,55,0,1,1,500,1,0.6659396483605133,0.33406035163948666
56,136,Uncued,56,0,2,2,744,2,0.13792680406350233,0.8620731959364977
57,136,Uncued,57,0,1,1,523,1,0.734563338179557,0.265436661820443
58,136,Uncued,58,0,1,1,521,1,0.806655785555648,0.19334421444435196
59,136,Uncued,59,0,2,2,733,1,0.6653229469467112,0.3346770530532887
60,136,Uncued,60,0,2,2,622,1,0.6210034605653706,0.3789965394346294
61,136,Uncued,61,0,1,1,419,1,0.560442019938979,0.439557980061021
62,136,Uncued,62,0,2,2,743,2,0.22283129130811652,0.7771687086918835
63,136,Uncued,63,0,1,1,378,2,0.1106851251769867,0.8893148748230133
64,136,Uncued,64,0,1,1,731,1,0.6182189401230309,0.38178105987696903
65,136,Uncued,65,0,2,2,718,1,0.6273474415235295,0.3726525584764705
66,136,Uncued,66,0,1,1,445,1,0.578072668250958,0.4219273317490419
67,136,Uncued,67,0,1,1,460,2,0.1568914242601518,0.8431085757398482
68,136,Uncued,68,0,2,2,601,2,0.26956126383758394,0.7304387361624161
69,136,Uncued,69,0,2,2,544,2,0.46857352779939754,0.5314264722006025
70,136,Uncued,70,0,2,2,569,1,0.7565873634101242,0.24341263658987575
71,136,Uncued,71,0,1,1,438,2,0.42960381230896794,0.5703961876910321
72,136,Uncued,72,0,1,1,500,1,0.7156606720378089,0.2843393279621911
73,136,Uncued,73,0,2,2,894,2,0.4808538717411188,0.5191461282588812
74,136,Uncued,74,0,2,2,601,2,0.43130323429099515,0.5686967657090048
75,136,Uncued,75,0,1,1,476,1,0.8275523511988903,0.17244764880110972
76,136,Uncued,76,0,1,1,485,1,0.5714620430857109,0.42853795691428903
77,136,Uncued,77,0,1,1,381,1,0.7272405345006427,0.2727594654993572
78,136,Uncued,78,0,1,1,442,2,0.4268873317977794,0.5731126682022206
79,136,Uncued,79,0,1,1,428,2,0.11096012455247839,0.8890398754475216
80,136,Uncued,80,0,1,1,500,2,0.12598053883671045,0.8740194611632895
81,136,Uncued,81,0,1,1,441,2,0.25629949910712624,0.7437005008928738
82,136,Uncued,82,0,2,2,514,1,0.9111868475742345,0.08881315242576553
83,136,Uncued,83,0,2,2,581,2,0.47011203598647366,0.5298879640135263
84,136,Uncued,84,0,2,2,469,1,0.9556366225402829,0.044363377459717045
85,136,Uncued,85,0,1,1,328,1,0.8742972947031187,0.12570270529688132
86,136,Uncued,86,0,2,2,488,1,0.6296947466102087,0.37030525338979126
87,136,Uncued,87,0,2,2,596,2,0.10673587739924772,0.8932641226007523
88,136,Uncued,88,0,2,2,680,1,0.5446919792490433,0.45530802075095667
89,136,Uncued,89,0,1,1,508,1,0.8950314853161208,0.10496851468387929
90,136,Uncued,90,0,2,2,897,2,0.09144233619514341,0.9085576638048566
91,136,Uncued,91,0,2,2,490,1,0.7140451347617817,0.28595486523821834
92,136,Uncued,92,0,2,2,554,1,0.8682652895703393,0.13173471042966073
93,136,Uncued,93,0,1,1,452,1,0.8448876432248689,0.15511235677513108
94,136,Uncued,94,0,1,1,639,1,0.5703973818473138,0.42960261815268624
95,136,Uncued,95,0,1,1,454,2,0.12265902013095487,0.8773409798690451
96,136,Uncued,96,0,1,1,447,2,0.292871402914456,0.707128597085544
97,136,Uncued,97,0,2,2,529,1,0.9661256692022459,0.03387433079775416
98,136,Uncued,98,0,2,2,664,2,0.0491825863343166,0.9508174136656834
99,136,Uncued,99,0,1,1,521,2,0.16186148024338576,0.8381385197566142
100,136,Uncued,100,0,1,1,541,1,0.8110654822656339,0.1889345177343661
101,136,Uncued,101,0,2,2,713,2,0.1212733150538553,0.8787266849461447
102,136,Uncued,102,0,2,2,660,1,0.5308445487696952,0.4691554512303048
103,136,Uncued,103,0,2,2,625,2,0.09571756927207309,0.9042824307279269
104,136,Uncued,104,0,1,1,484,1,0.9744349314996872,0.02556506850031276
105,136,Uncued,105,0,1,1,480,2,0.08051402231705218,0.9194859776829478
106,136,Uncued,106,0,1,1,474,1,0.8684354232571321,0.13156457674286787
107,136,Uncued,107,0,2,2,546,1,0.7015897271596937,0.2984102728403063
108,136,Uncued,108,0,1,1,379,1,0.6573169745694234,0.34268302543057655
109,136,Uncued,109,0,2,2,792,1,0.693207737166949,0.306792262833051
110,136,Uncued,110,0,1,1,388,1,0.6499159295914254,0.35008407040857464
111,136,Uncued,111,0,2,2,536,2,0.04239799058218041,0.9576020094178196
112,136,Uncued,112,0,2,2,711,1,0.5889940999826058,0.4110059000173942
113,136,Uncued,113,0,2,2,614,1,0.7947084496272894,0.2052915503727106
114,136,Uncued,114,0,1,1,505,2,0.48307965880029746,0.5169203411997025
115,136,Uncued,115,0,2,2,788,1,0.7715507333750315,0.2284492666249685
116,136,Uncued,116,0,1,1,422,1,0.7695385559772008,0.23046144402279925
117,136,Uncued,117,0,2,2,437,1,0.8674594403274238,0.1325405596725761
118,136,Uncued,118,0,1,1,502,2,0.43352145257246777,0.5664785474275322
119,136,Uncued,119,0,1,1,581,2,0.05141156634448896,0.948588433655511
120,136,Uncued,120,0,2,2,567,1,0.8807069437654185,0.11929305623458156
121,136,Uncued,121,0,1,1,380,1,0.5428563865312288,0.45714361346877114
122,136,Uncued,122,0,2,2,454,1,0.7802511968169021,0.21974880318309792
123,136,Uncued,123,0,2,2,593,2,0.4799689142697646,0.5200310857302354
124,136,Uncued,124,0,2,2,480,2,0.012643000414211403,0.9873569995857886
125,136,Uncued,125,0,2,2,476,1,0.5871169570183692,0.4128830429816308
126,136,Uncued,126,0,2,2,618,1,0.6883211940512926,0.3116788059487074
127,136,Uncued,127,0,1,1,581,1,0.7565479673926807,0.24345203260731924
128,136,Uncued,128,0,1,1,525,1,0.7397370175755056,0.26026298242449447
129,136,Uncued,129,0,1,1,576,1,0.7841238299267992,0.21587617007320087
130,136,Uncued,130,0,1,1,525,1,0.5034381509574999,0.49656184904250006
131,136,Uncued,131,0,1,1,516,1,0.763738890524476,0.23626110947552403
132,136,Uncued,132,0,2,2,470,2,0.15398862657436574,0.8460113734256343
133,136,Uncued,133,0,2,2,751,2,0.22550955052923194,0.7744904494707681
134,136,Uncued,134,0,1,1,508,1,0.8930720430868337,0.10692795691316628
135,136,Uncued,135,0,1,1,499,1,0.5900650842732015,0.4099349157267985
136,136,Uncued,136,0,2,2,737,2,0.44944659942442133,0.5505534005755787
137,136,Uncued,137,0,1,1,463,1,0.9112136618980669,0.08878633810193316
138,136,Uncued,138,0,2,2,713,1,0.8985086386056947,0.10149136139430526
139,136,Uncued,139,0,1,1,471,1,0.8434504118128582,0.1565495881871418
140,136,Uncued,140,0,1,1,696,1,0.7709708551884558,0.22902914481154418
141,136,Uncued,141,0,1,1,503,2,0.23489781948982547,0.7651021805101745
142,136,Uncued,142,0,1,1,527,1,0.7387057295889967,0.2612942704110033
143,136,Uncued,143,0,1,1,460,2,0.4555639884214989,0.5444360115785011
144,136,Uncued,144,0,2,2,612,2,0.08386722133490765,0.9161327786650924
145,136,Uncued,145,0,2,2,673,1,0.5437557251252302,0.4562442748747698
146,136,Uncued,146,0,1,1,571,2,0.18371178752442963,0.8162882124755704
147,136,Uncued,147,0,1,1,486,2,0.04750599085330243,0.9524940091466976
148,136,Uncued,148,0,2,2,651,1,0.5836527822791143,0.4163472177208857
149,136,Uncued,149,0,2,2,1208,1,0.7384443946696717,0.26155560533032823
150,136,Uncued,150,0,1,1,458,1,0.859696332920848,0.14030366707915204
151,136,Uncued,151,0,1,1,611,1,0.9311769677976832,0.06882303220231677
152,136,Uncued,152,0,2,2,517,1,0.5213457562744002,0.4786542437255998
153,136,Uncued,153,0,1,1,645,1,0.557018868034497,0.4429811319655031
154,136,Uncued,154,0,2,2,684,1,0.7192684073129921,0.28073159268700787
155,136,Uncued,155,0,2,2,876,1,0.6854359669671122,0.3145640330328878
156,136,Uncued,156,0,1,1,578,1,0.9719633854297545,0.02803661457024558
157,136,Uncued,157,0,2,2,600,1,0.6096030553674894,0.39039694463251057
158,136,Uncued,158,0,1,1,549,1,0.9363945696146961,0.06360543038530389
159,136,Uncued,159,0,1,1,685,2,0.39425839619520975,0.6057416038047903
160,136,Uncued,160,0,2,2,670,1,0.6608901938957594,0.33910980610424063
161,136,Uncued,161,0,1,1,655,2,0.2329957645177495,0.7670042354822505
162,136,Uncued,162,0,1,1,520,1,0.7583342781987112,0.24166572180128879
163,136,Uncued,163,0,1,1,454,2,0.42180485542333057,0.5781951445766694
164,136,Uncued,164,0,1,1,591,1,0.6803843047583371,0.3196156952416629
165,136,Uncued,165,0,1,1,481,2,0.17829072444938576,0.8217092755506142
166,136,Uncued,166,0,1,1,457,1,0.6004895057853931,0.39951049421460694
167,136,Uncued,167,0,2,2,470,1,0.8481921432048154,0.1518078567951846
168,136,Uncued,168,0,1,1,518,2,0.2336947289379464,0.7663052710620536
169,136,Uncued,169,0,2,2,803,2,0.4577200648470028,0.5422799351529972
170,136,Uncued,170,0,2,2,646,1,0.8308751093141165,0.16912489068588352
171,136,Uncued,171,0,2,2,506,2,0.4854771282403769,0.5145228717596231
172,136,Uncued,172,0,1,1,619,1,0.5695227142359773,0.4304772857640226
173,136,Uncued,173,0,1,1,550,2,0.13378183277575284,0.8662181672242472
174,136,Uncued,174,0,2,2,582,1,0.8660827489446391,0.13391725105536093
175,136,Uncued,175,0,2,2,760,1,0.916242258285088,0.08375774171491199
176,136,Uncued,176,0,1,1,426,1,0.8695950115450091,0.130404988454991
177,136,Uncued,177,0,1,1,478,1,0.87237667864411,0.12762332135589005
178,136,Uncued,178,0,2,2,845,1,0.5410266345369192,0.45897336546308076
179,136,Uncued,179,0,1,1,461,1,0.8982667224983247,0.10173327750167532
0,358,Uncued,0,0,1,1,373,1,0.716096001204639,0.283903998795361
1,358,Uncued,1,0,1,1,379,2,0.4168506983466237,0.5831493016533763
2,358,Uncued,2,0,1,1,432,1,0.9858365722734238,0.014163427726576153
3,358,Uncued,3,0,2,2,498,1,0.6636927384404299,0.33630726155957014
4,358,Uncued,4,0,1,1,346,2,0.3886774122899118,0.6113225877100882
5,358,Uncued,5,0,2,2,411,2,0.43061035704827144,0.5693896429517286
6,358,Uncued,6,0,2,2,624,2,0.3838932609557748,0.6161067390442252
7,358,Uncued,7,0,1,1,380,1,0.6400425886475363,0.35995741135246373
8,358,Uncued,8,0,1,1,379,1,0.694527233045112,0.30547276695488806
9,358,Uncued,9,0,1,1,399,2,0.057045485358463544,0.9429545146415365
10,358,Uncued,10,0,2,2,493,1,0.7383608432200016,0.2616391567799984
11,358,Uncued,11,0,2,2,541,1,0.83063077021634,0.16936922978365992
12,358,Uncued,12,0,1,1,505,1,0.525540293265693,0.47445970673430704
13,358,Uncued,13,0,1,1,336,2,0.282772171932533,0.717227828067467
14,358,Uncued,14,0,1,1,374,1,0.7884667789716685,0.21153322102833147
15,358,Uncued,15,0,2,2,477,1,0.7906294787620878,0.20937052123791222
16,358,Uncued,16,0,2,2,516,2,0.4902887209833031,0.5097112790166969
17,358,Uncued,17,0,2,2,556,1,0.5324029083322532,0.46759709166774677
18,358,Uncued,18,0,2,2,466,2,0.37010239818532764,0.6298976018146724
19,358,Uncued,19,0,2,2,549,1,0.9401047947772259,0.059895205222774174
20,358,Uncued,20,0,1,1,322,2,0.3115141315532479,0.6884858684467521
21,358,Uncued,21,0,2,2,552,1,0.656728840983017,0.3432711590169831
22,358,Uncued,22,0,1,1,359,1,0.903122750310438,0.09687724968956203
23,358,Uncued,23,0,2,2,362,2,0.23945978042716665,0.7605402195728334
24,358,Uncued,24,0,1,1,301,1,0.7878780614341276,0.21212193856587241
25,358,Uncued,25,0,2,2,545,1,0.9270948530699554,0.0729051469300446
26,358,Uncued,26,0,1,1,347,1,0.9640316198262774,0.03596838017372259
27,358,Uncued,27,0,1,1,472,1,0.684632910587062,0.315367089412938
28,358,Uncued,28,0,2,1,496,1,0.5047531097755136,0.4952468902244864
29,358,Uncued,29,0,1,1,367,1,0.5477861614031305,0.4522138385968695
30,358,Uncued,30,0,1,1,469,1,0.7093161295803423,0.29068387041965765
31,358,Uncued,31,0,2,2,381,2,0.15988613631378756,0.8401138636862124
32,358,Uncued,32,0,1,1,534,1,0.5345703156134305,0.46542968438656956
33,358,Uncued,33,0,2,1,572,2,0.4027853711126299,0.5972146288873701
34,358,Uncued,34,0,2,2,548,2,0.23122237311204374,0.7687776268879563
35,358,Uncued,35,0,1,1,520,2,0.3961004905600083,0.6038995094399917
36,358,Uncued,36,0,1,1,514,2,0.32077946723438255,0.6792205327656174
37,358,Uncued,37,0,2,2,553,2,0.12775524436131003,0.87224475563869
38,358,Uncued,38,0,2,1,566,2,0.0720561561618277,0.9279438438381723
39,358,Uncued,39,0,1,1,539,1,0.6182038489979258,0.38179615100207426
40,358,Uncued,40,0,2,2,441,2,0.20729409776500896,0.792705902234991
41,358,Uncued,41,0,1,1,502,1,0.5642646844184959,0.43573531558150413
42,358,Uncued,42,0,2,2,452,1,0.654687962271288,0.34531203772871194
43,358,Uncued,43,0,1,1,542,1,0.8198095361821082,0.18019046381789183
44,358,Uncued,44,0,2,2,452,2,0.30748380257130514,0.6925161974286949
45,358,Uncued,45,0,1,1,341,2,0.11702168189523576,0.8829783181047642
46,358,Uncued,46,0,1,1,475,2,0.2448412595992936,0.7551587404007064
47,358,Uncued,47,0,2,2,626,1,0.9937747249854734,0.006225275014526668
48,358,Uncued,48,0,1,1,522,1,0.8660871986388694,0.13391280136113057
49,358,Uncued,49,0,1,1,481,1,0.8100893592976057,0.18991064070239427
50,358,Uncued,50,0,2,2,408,2,0.3712548313705466,0.6287451686294534
51,358,Uncued,51,0,1,1,553,1,0.9527343861198121,0.04726561388018792
52,358,Uncued,52,0,2,2,638,1,0.7744482397218332,0.2255517602781668
53,358,Uncued,53,0,1,1,547,1,0.8407941991476438,0.15920580085235625
54,358,Uncued,54,0,2,2,521,2,0.11067294769881686,0.8893270523011831
55,358,Uncued,55,0,2,2,443,2,0.13202247165763326,0.8679775283423667
56,358,Uncued,56,0,2,2,486,1,0.9569013904884515,0.0430986095115485
57,358,Uncued,57,0,1,1,502,1,0.9031563683346747,0.09684363166532531
58,358,Uncued,58,0,2,2,498,1,0.5298131315569417,0.4701868684430584
59,358,Uncued,59,0,2,2,756,2,0.10609546938693903,0.893904530613061
60,358,Uncued,60,0,1,1,447,2,0.1757653211002036,0.8242346788997964
61,358,Uncued,61,0,2,2,434,1,0.8277116787167076,0.1722883212832924
62,358,Uncued,62,0,1,1,397,1,0.5256752777327109,0.4743247222672891
63,358,Uncued,63,0,1,1,490,1,0.7786103035777853,0.2213896964222147
64,358,Uncued,64,0,1,1,578,1,0.5221495531911545,0.4778504468088455
65,358,Uncued,65,0,2,2,405,2,0.14942158279744278,0.8505784172025572
66,358,Uncued,66,0,1,1,512,2,0.17838384277613217,0.8216161572238678
67,358,Uncued,67,0,2,2,449,1,0.5008050851324863,0.49919491486751366
68,358,Uncued,68,0,2,2,600,2,0.3814265260497989,0.6185734739502011
69,358,Uncued,69,0,2,2,664,2,0.49196321599622483,0.5080367840037752
70,358,Uncued,70,0,2,2,569,2,0.41551088984013373,0.5844891101598663
71,358,Uncued,71,0,2,2,982,2,0.10142906711000577,0.8985709328899942
72,358,Uncued,72,0,2,2,546,2,0.46100836975564097,0.538991630244359
73,358,Uncued,73,0,1,1,462,1,0.8997785279683417,0.10022147203165832
74,358,Uncued,74,0,1,1,476,1,0.9100964291454325,0.0899035708545674
75,358,Uncued,75,0,1,1,564,2,0.4604018324914708,0.5395981675085292
76,358,Uncued,76,0,1,1,441,1,0.8345217462019825,0.16547825379801753
77,358,Uncued,77,0,1,1,469,2,0.24370408088957474,0.7562959191104253
78,358,Uncued,78,0,2,2,458,1,0.5347590205380212,0.46524097946197884
79,358,Uncued,79,0,2,2,556,2,0.4111779307633934,0.5888220692366066
80,358,Uncued,80,0,1,1,531,2,0.4218434933463102,0.5781565066536898
81,358,Uncued,81,0,2,1,552,1,0.6001347552746337,0.3998652447253663
82,358,Uncued,82,0,1,1,470,1,0.7677502444286484,0.23224975557135163
83,358,Uncued,83,0,1,1,625,1,0.7614007630910726,0.23859923690892731
84,358,Uncued,84,0,1,1,491,1,0.5593029005307961,0.4406970994692038
85,358,Uncued,85,0,2,2,795,1,0.6355398637635925,0.3644601362364075
86,358,Uncued,86,0,2,2,575,2,0.29495932124359325,0.7050406787564067
87,358,Uncued,87,0,2,2,644,2,0.35049793425195686,0.6495020657480431
88,358,Uncued,88,0,1,1,456,2,0.14174269443372023,0.8582573055662798
89,358,Uncued,89,0,1,1,595,2,0.4707210996458243,0.5292789003541757
90,358,Uncued,90,0,1,1,576,1,0.8307048273631173,0.16929517263688268
91,358,Uncued,91,0,1,1,536,2,0.20991865045143254,0.7900813495485675
92,358,Uncued,92,0,2,2,431,2,0.3176762080928709,0.6823237919071291
93,358,Uncued,93,0,1,1,471,2,0.16789747205152683,0.8321025279484732
94,358,Uncued,94,0,2,2,743,2,0.2312725266983967,0.7687274733016033
95,358,Uncued,95,0,2,2,532,2,0.042446084356019154,0.9575539156439808
96,358,Uncued,96,0,2,2,512,2,0.21008830276268942,0.7899116972373106
97,358,Uncued,97,0,1,1,396,2,0.44814873033088,0.55185126966912
98,358,Uncued,98,0,2,1,593,2,0.44718291810450106,0.5528170818954989
99,358,Uncued,99,0,1,1,586,1,0.5485742093863508,0.4514257906136492
100,358,Uncued,100,0,2,2,451,1,0.9782715528898911,0.021728447110108896
101,358,Uncued,101,0,1,1,648,1,0.656693725518779,0.343306274481221
102,358,Uncued,102,0,1,1,464,1,0.8262056698823154,0.1737943301176846
103,358,Uncued,103,0,1,1,463,2,0.27843678261812577,0.7215632173818742
104,358,Uncued,104,0,1,1,512,2,0.2073208381569347,0.7926791618430653
105,358,Uncued,105,0,1,1,554,1,0.7027582602485563,0.29724173975144375
106,358,Uncued,106,0,2,2,432,2,0.48548633744190006,0.5145136625580999
107,358,Uncued,107,0,1,1,602,1,0.6886136919203737,0.3113863080796263
108,358,Uncued,108,0,2,2,415,1,0.5175779493832819,0.4824220506167181
109,358,Uncued,109,0,1,1,484,2,0.03030889950167437,0.9696911004983256
110,358,Uncued,110,0,1,1,410,1,0.8932383133815242,0.1067616866184758
111,358,Uncued,111,0,2,2,801,2,0.44626956873717405,0.553730431262826
112,358,Uncued,112,0,2,2,593,2,0.32807718198239033,0.6719228180176097
113,358,Uncued,113,0,1,1,473,1,0.5968294598419093,0.4031705401580907
114,358,Uncued,114,0,2,2,473,1,0.9934221590113099,0.006577840988690054
115,358,Uncued,115,0,2,2,514,1,0.9831782924952582,0.016821707504741785
116,358,Uncued,116,0,2,2,658,1,0.6630738777048435,0.33692612229515645
117,358,Uncued,117,0,1,1,561,1,0.5053819712828362,0.4946180287171637
118,358,Uncued,118,0,2,2,585,2,0.16670733339258748,0.8332926666074125
119,358,Uncued,119,0,2,2,893,1,0.5518949902513062,0.4481050097486939
120,358,Uncued,120,0,1,1,451,2,0.17919356922626561,0.8208064307737344
121,358,Uncued,121,0,1,1,396,1,0.9002866298790957,0.09971337012090431
122,358,Uncued,122,0,1,1,476,2,0.29363404928618286,0.7063659507138171
123,358,Uncued,123,0,2,2,395,1,0.8078219833344483,0.19217801666555165
124,358,Uncued,124,0,1,1,359,2,0.3315457867611832,0.6684542132388168
125,358,Uncued,125,0,1,1,463,2,0.2536682515397978,0.7463317484602022
126,358,Uncued,126,0,2,2,424,1,0.9737709622952474,0.02622903770475263
127,358,Uncued,127,0,1,1,388,1,0.8336561986843412,0.1663438013156589
128,358,Uncued,128,0,1,1,482,1,0.7957923011868535,0.20420769881314643
129,358,Uncued,129,0,2,2,673,1,0.8166069171490742,0.18339308285092576
130,358,Uncued,130,0,1,1,387,2,0.4238159029172399,0.5761840970827601
131,358,Uncued,131,0,2,2,446,2,0.17228187272639373,0.8277181272736063
132,358,Uncued,132,0,1,1,568,1,0.6275291209838962,0.3724708790161038
133,358,Uncued,133,0,2,2,491,1,0.6653308764199755,0.3346691235800246
134,358,Uncued,134,0,2,2,618,2,0.3605904365495374,0.6394095634504626
135,358,Uncued,135,0,2,2,563,1,0.8334702207935153,0.16652977920648468
136,358,Uncued,136,0,1,1,401,1,0.5534394909087648,0.4465605090912353
137,358,Uncued,137,0,1,1,589,2,0.16279464411768718,0.8372053558823128
138,358,Uncued,138,0,1,1,473,2,0.46172391795838097,0.538276082041619
139,358,Uncued,139,0,1,1,485,2,0.45258473625119333,0.5474152637488067
140,358,Uncued,140,0,1,1,555,2,0.36995956858448387,0.6300404314155161
141,358,Uncued,141,0,1,1,540,2,0.05478355618248587,0.9452164438175141
142,358,Uncued,142,0,1,1,641,2,0.3431742101635409,0.6568257898364591
143,358,Uncued,143,0,2,2,547,2,0.07455647389240427,0.9254435261075957
144,358,Uncued,144,0,2,2,556,2,0.2064026690458466,0.7935973309541534
145,358,Uncued,145,0,1,1,577,1,0.5570371009078607,0.4429628990921393
146,358,Uncued,146,0,2,2,693,1,0.709515270305366,0.290484729694634
147,358,Uncued,147,0,1,1,364,2,0.04745503658327155,0.9525449634167285
148,358,Uncued,148,0,1,1,534,2,0.3174543805694382,0.6825456194305618
149,358,Uncued,149,0,2,2,503,2,0.07767510723447069,0.9223248927655293
150,358,Uncued,150,0,2,2,550,2,0.4419002567081952,0.5580997432918048
151,358,Uncued,151,0,1,1,486,2,0.12415978465987254,0.8758402153401275
152,358,Uncued,152,0,2,2,446,1,0.8285429626333235,0.17145703736667647
153,358,Uncued,153,0,1,1,390,1,0.8554013707593995,0.1445986292406005
154,358,Uncued,154,0,2,2,810,2,0.3159358325436371,0.6840641674563629
155,358,Uncued,155,0,1,1,338,2,0.2180583109525649,0.7819416890474351
156,358,Uncued,156,0,1,1,565,2,0.46858263231479524,0.5314173676852048
157,358,Uncued,157,0,1,1,584,2,0.037124340668553635,0.9628756593314464
158,358,Uncued,158,0,1,1,505,1,0.9335526112929964,0.0664473887070036
159,358,Uncued,159,0,1,1,489,1,0.6110590591118135,0.38894094088818654
160,358,Uncued,160,0,1,1,483,2,0.08823345763029,0.91176654236971
161,358,Uncued,161,0,1,1,451,1,0.9744793490899438,0.0255206509100562
162,358,Uncued,162,0,2,2,439,2,0.11826206883567203,0.881737931164328
163,358,Uncued,163,0,2,2,536,2,0.22583610097161344,0.7741638990283866
164,358,Uncued,164,0,1,1,453,2,0.49639173295785144,0.5036082670421486
165,358,Uncued,165,0,1,1,446,1,0.7407007478309166,0.25929925216908345
166,358,Uncued,166,0,1,1,474,1,0.5264591705949848,0.4735408294050152
167,358,Uncued,167,0,1,1,482,1,0.8210564014391668,0.1789435985608332
168,358,Uncued,168,0,2,2,491,2,0.09950661738604127,0.9004933826139587
169,358,Uncued,169,0,1,1,575,2,0.12351592312938997,0.87648407687061
170,358,Uncued,170,0,1,1,511,2,0.34742096589351357,0.6525790341064864
171,358,Uncued,171,0,1,1,467,1,0.7821247519333502,0.2178752480666498
172,358,Uncued,172,0,1,1,453,1,0.6687439600623977,0.33125603993760233
173,358,Uncued,173,0,1,1,431,1,0.5466287313294902,0.45337126867050975
174,358,Uncued,174,0,2,2,401,1,0.708710669607427,0.29128933039257304
175,358,Uncued,175,0,1,1,452,2,0.23381266668647405,0.766187333313526
176,358,Uncued,176,0,2,2,435,2,0.14211116872192397,0.857888831278076
177,358,Uncued,177,0,2,2,656,2,0.06175817124816507,0.9382418287518349
178,358,Uncued,178,0,1,1,505,1,0.6698853963447122,0.3301146036552877
179,358,Uncued,179,0,2,2,662,2,0.2770033876085629,0.7229966123914371
0,916,Uncued,0,0,1,1,602,1,0.6626903597584247,0.3373096402415753
1,916,Uncued,1,0,2,2,542,1,0.6484380699718963,0.3515619300281036
2,916,Uncued,2,0,1,1,427,1,0.9215480140560355,0.07845198594396452
3,916,Uncued,3,0,1,1,555,1,0.9465722931650355,0.05342770683496446
4,916,Uncued,4,0,2,2,507,1,0.93176343559321,0.06823656440679003
5,916,Uncued,5,0,2,2,698,1,0.9431735631444279,0.05682643685557213
6,916,Uncued,6,0,2,2,686,1,0.9174596570885963,0.08254034291140362
7,916,Uncued,7,0,1,1,462,1,0.5337031654405482,0.46629683455945176
8,916,Uncued,8,0,1,1,575,1,0.5454246049438216,0.45457539505617844
9,916,Uncued,9,0,2,2,684,1,0.9305164609212573,0.06948353907874273
10,916,Uncued,10,0,2,2,801,1,0.8511808414594044,0.14881915854059555
11,916,Uncued,11,0,1,1,532,1,0.941116636185133,0.05888336381486708
12,916,Uncued,12,0,2,2,602,1,0.8897156021749602,0.11028439782503989
13,916,Uncued,13,0,2,2,418,2,0.440608505404247,0.559391494595753
14,916,Uncued,14,0,2,2,526,1,0.5046570711490594,0.49534292885094056
15,916,Uncued,15,0,1,1,517,1,0.8027126082839859,0.1972873917160141
16,916,Uncued,16,0,2,2,1075,1,0.859226814083894,0.14077318591610602
17,916,Uncued,17,0,1,1,831,2,0.32487015687268594,0.675129843127314
18,916,Uncued,18,0,1,1,871,2,0.2733203737176466,0.7266796262823534
19,916,Uncued,19,0,1,1,411,1,0.6390393389221767,0.3609606610778234
20,916,Uncued,20,0,2,2,528,2,0.21777103608286352,0.7822289639171365
21,916,Uncued,21,0,2,1,822,1,0.7499184903834422,0.2500815096165579
22,916,Uncued,22,0,2,2,639,1,0.8564915021549001,0.14350849784509986
23,916,Uncued,23,0,1,1,480,1,0.8066013122251436,0.1933986877748563
24,916,Uncued,24,0,2,2,466,1,0.9468346042493889,0.053165395750611084
25,916,Uncued,25,0,1,1,485,1,0.7771644200154743,0.22283557998452574
26,916,Uncued,26,0,2,2,541,1,0.6959482187990761,0.3040517812009239
27,916,Uncued,27,0,1,1,545,2,0.4111332180419902,0.5888667819580098
28,916,Uncued,28,0,2,2,568,1,0.5981280860243003,0.4018719139756996
29,916,Uncued,29,0,1,1,545,1,0.5565802282560284,0.4434197717439717
30,916,Uncued,30,0,2,2,756,2,0.4632724873379387,0.5367275126620613
31,916,Uncued,31,0,1,1,663,1,0.7989420577247417,0.20105794227525828
32,916,Uncued,32,0,1,1,501,1,0.5296355685593364,0.4703644314406636
33,916,Uncued,33,0,2,2,684,1,0.7290143274158603,0.2709856725841397
34,916,Uncued,34,0,2,2,735,1,0.8416576546440133,0.15834234535598668
35,916,Uncued,35,0,2,2,462,1,0.7301017685938114,0.2698982314061886
36,916,Uncued,36,0,2,2,647,1,0.6161211090927257,0.3838788909072744
37,916,Uncued,37,0,2,2,549,2,0.48676112473896616,0.5132388752610338
38,916,Uncued,38,0,2,2,420,1,0.9633069722017804,0.03669302779821963
39,916,Uncued,39,0,2,2,495,1,0.7674840860414727,0.23251591395852733
40,916,Uncued,40,0,1,1,528,1,0.8991595230856121,0.10084047691438794
41,916,Uncued,41,0,2,2,573,1,0.8798064462873155,0.1201935537126845
42,916,Uncued,42,0,1,1,546,1,0.9369124588791583,0.06308754112084168
43,916,Uncued,43,0,2,2,590,1,0.8197636495943884,0.18023635040561156
44,916,Uncued,44,0,2,2,682,2,0.11830294287942145,0.8816970571205786
45,916,Uncued,45,0,2,2,528,2,0.38534033861091777,0.6146596613890822
46,916,Uncued,46,0,1,1,649,2,0.43206912078667437,0.5679308792133256
47,916,Uncued,47,0,2,2,642,1,0.7494607966106361,0.25053920338936386
48,916,Uncued,48,0,1,1,449,1,0.8585076582524979,0.14149234174750214
49,916,Uncued,49,0,2,2,556,2,0.2553077912036057,0.7446922087963943
50,916,Uncued,50,0,2,1,424,1,0.8861204377122722,0.11387956228772776
51,916,Uncued,51,0,2,2,461,1,0.9106942544100248,0.08930574558997514
52,916,Uncued,52,0,2,2,646,1,0.6033617800648907,0.39663821993510934
53,916,Uncued,53,0,2,2,747,1,0.9698711641159159,0.03012883588408412
54,916,Uncued,54,0,2,2,683,1,0.9163218493294079,0.08367815067059217
55,916,Uncued,55,0,2,2,584,2,0.3001413540470983,0.6998586459529017
56,916,Uncued,56,0,1,1,508,2,0.3785158664889786,0.6214841335110214
57,916,Uncued,57,0,1,1,427,1,0.5531743357561245,0.44682566424387554
58,916,Uncued,58,0,1,1,694,1,0.5626426759016434,0.43735732409835654
59,916,Uncued,59,0,2,1,559,1,0.9822731012195687,0.01772689878043131
60,916,Uncued,60,0,2,2,572,1,0.8764183042748994,0.12358169572510058
61,916,Uncued,61,0,2,2,538,1,0.7424743607658332,0.2575256392341668
62,916,Uncued,62,0,2,2,468,1,0.9073610796460239,0.09263892035397615
63,916,Uncued,63,0,2,2,740,2,0.4951297241129763,0.5048702758870237
64,916,Uncued,64,0,1,1,512,1,0.8003744519027851,0.19962554809721483
65,916,Uncued,65,0,1,1,437,1,0.9273961839973048,0.0726038160026952
66,916,Uncued,66,0,1,1,404,1,0.7710256726239869,0.2289743273760131
67,916,Uncued,67,0,1,1,656,1,0.7277047355896002,0.27229526441039975
68,916,Uncued,68,0,2,2,401,2,0.33613789515594983,0.6638621048440502
69,916,Uncued,69,0,1,1,437,1,0.5807344847741014,0.41926551522589867
70,916,Uncued,70,0,2,2,807,1,0.5010512540671247,0.4989487459328753
71,916,Uncued,71,0,1,1,446,2,0.22612905807323713,0.7738709419267629
72,916,Uncued,72,0,2,2,624,2,0.3934931548460886,0.6065068451539114
73,916,Uncued,73,0,2,2,500,1,0.9870448775343487,0.012955122465651375
74,916,Uncued,74,0,1,1,320,1,0.8799708351809928,0.12002916481900712
75,916,Uncued,75,0,2,2,460,1,0.8748548236202959,0.12514517637970413
76,916,Uncued,76,0,1,1,532,1,0.5962411508092755,0.40375884919072447
77,916,Uncued,77,0,2,2,402,1,0.5985479452336746,0.4014520547663254
78,916,Uncued,78,0,1,1,519,2,0.35162974388020507,0.6483702561197949
79,916,Uncued,79,0,1,2,530,1,0.9726118968504507,0.027388103149549353
80,916,Uncued,80,0,1,1,552,2,0.40769045323435704,0.592309546765643
81,916,Uncued,81,0,2,2,742,2,0.32860100099576806,0.6713989990042319
82,916,Uncued,82,0,2,2,483,1,0.5662972430172974,0.43370275698270255
83,916,Uncued,83,0,1,1,511,1,0.7507881629396769,0.24921183706032313
84,916,Uncued,84,0,1,1,714,2,0.40181587624538717,0.5981841237546128
85,916,Uncued,85,0,2,2,500,1,0.6812382030077561,0.31876179699224394
86,916,Uncued,86,0,1,1,499,1,0.876649787769113,0.12335021223088703
87,916,Uncued,87,0,2,2,655,1,0.8317387661510856,0.1682612338489145
88,916,Uncued,88,0,1,1,496,2,0.02226401946749601,0.977735980532504
89,916,Uncued,89,0,2,1,496,2,0.4485689498144414,0.5514310501855586
90,916,Uncued,90,0,2,2,496,2,0.416140202289515,0.583859797710485
91,916,Uncued,91,0,2,2,528,2,0.4736437677263631,0.5263562322736369
92,916,Uncued,92,0,1,1,573,2,0.09583150726350809,0.9041684927364919
93,916,Uncued,93,0,1,1,522,1,0.7072194781612824,0.29278052183871767
94,916,Uncued,94,0,1,1,435,1,0.9818306896924256,0.018169310307574422
95,916,Uncued,95,0,1,1,421,1,0.7700415932035798,0.22995840679642018
96,916,Uncued,96,0,1,1,624,2,0.18514865135895997,0.81485134864104
97,916,Uncued,97,0,2,2,459,1,0.7476772463232462,0.25232275367675383
98,916,Uncued,98,0,2,2,971,1,0.8480074712110588,0.15199252878894115
99,916,Uncued,99,0,1,1,576,2,0.23874403662677401,0.761255963373226
100,916,Uncued,100,0,1,3,2001,2,0.3918736895869688,0.6081263104130312
101,916,Uncued,101,0,1,1,533,1,0.8805142291051862,0.11948577089481381
102,916,Uncued,102,0,2,2,590,2,0.23562333176183903,0.764376668238161
103,916,Uncued,103,0,1,1,499,1,0.5845584395457671,0.41544156045423286
104,916,Uncued,104,0,1,1,417,1,0.6267826306472883,0.37321736935271166
105,916,Uncued,105,0,1,1,404,1,0.6376434536532104,0.3623565463467896
106,916,Uncued,106,0,1,1,432,2,0.46174675582766345,0.5382532441723366
107,916,Uncued,107,0,1,1,418,1,0.8164928397022109,0.18350716029778913
108,916,Uncued,108,0,2,2,432,2,0.41862399345518475,0.5813760065448152
109,916,Uncued,109,0,1,1,446,1,0.8967610725015797,0.10323892749842033
110,916,Uncued,110,0,2,2,530,1,0.7083235034276698,0.29167649657233014
111,916,Uncued,111,0,1,1,418,1,0.7446980820460455,0.2553019179539545
112,916,Uncued,112,0,1,1,520,2,0.2256316790538283,0.7743683209461717
113,916,Uncued,113,0,1,1,487,1,0.7321196007023938,0.26788039929760615
114,916,Uncued,114,0,2,2,436,2,0.3066511669200894,0.6933488330799106
115,916,Uncued,115,0,2,2,739,1,0.9772791814650506,0.022720818534949415
116,916,Uncued,116,0,2,2,487,1,0.9585979952495469,0.04140200475045303
117,916,Uncued,117,0,1,1,552,2,0.43520209344145955,0.5647979065585405
118,916,Uncued,118,0,1,1,1093,1,0.7739494529470279,0.22605054705297217
119,916,Uncued,119,0,2,2,582,1,0.9005672663960114,0.09943273360398862
120,916,Uncued,120,0,2,2,549,1,0.5248375772905185,0.47516242270948156
121,916,Uncued,121,0,1,1,355,1,0.9656163658608222,0.03438363413917776
122,916,Uncued,122,0,2,2,537,1,0.9423500268893716,0.0576499731106284
123,916,Uncued,123,0,2,2,528,2,0.29368569439556835,0.7063143056044316
124,916,Uncued,124,0,2,2,510,1,0.6678147824781602,0.3321852175218399
125,916,Uncued,125,0,2,2,524,1,0.5620087422814961,0.4379912577185039
126,916,Uncued,126,0,2,2,538,1,0.6196181602621702,0.38038183973782974
127,916,Uncued,127,0,1,1,385,1,0.6631741408885286,0.3368258591114715
128,916,Uncued,128,0,1,1,446,1,0.8240992021079188,0.1759007978920813
129,916,Uncued,129,0,1,1,487,1,0.8964073615251859,0.10359263847481413
130,916,Uncued,130,0,1,1,359,2,0.437597198475853,0.562402801524147
131,916,Uncued,131,0,1,1,365,2,0.11061729017433419,0.8893827098256658
132,916,Uncued,132,0,2,2,745,1,0.8365964103479251,0.16340358965207494
133,916,Uncued,133,0,1,1,431,1,0.946195306310541,0.05380469368945894
134,916,Uncued,134,0,2,2,569,2,0.4970818163810803,0.5029181836189197
135,916,Uncued,135,0,1,1,429,1,0.9596128604925109,0.040387139507489046
136,916,Uncued,136,0,2,2,448,2,0.37655359928778487,0.6234464007122151
137,916,Uncued,137,0,1,1,421,1,0.5832839490060796,0.4167160509939204
138,916,Uncued,138,0,1,1,402,1,0.9130294076274873,0.08697059237251267
139,916,Uncued,139,0,1,1,398,2,0.12887754542483,0.87112245457517
140,916,Uncued,140,0,2,2,522,1,0.9706421061194601,0.02935789388053989
141,916,Uncued,141,0,2,2,470,1,0.7999581902412878,0.20004180975871227
142,916,Uncued,142,0,2,2,457,1,0.8088640654694808,0.19113593453051922
143,916,Uncued,143,0,2,2,461,2,0.27568262776803154,0.7243173722319685
144,916,Uncued,144,0,2,2,486,1,0.664473749636957,0.335526250363043
145,916,Uncued,145,0,2,2,558,1,0.987808194725889,0.012191805274111064
146,916,Uncued,146,0,2,2,685,1,0.7504849487040876,0.24951505129591245
147,916,Uncued,147,0,1,1,445,1,0.7676366273034478,0.2323633726965521
148,916,Uncued,148,0,1,1,409,1,0.6912790219369132,0.3087209780630868
149,916,Uncued,149,0,2,2,388,2,0.2557157028970003,0.7442842971029997
150,916,Uncued,150,0,2,2,433,1,0.9866516555382497,0.013348344461750258
151,916,Uncued,151,0,2,2,436,2,0.02525335177629351,0.9747466482237065
152,916,Uncued,152,0,1,1,549,1,0.8161895393008889,0.1838104606991111
153,916,Uncued,153,0,2,2,613,2,0.05425524941806892,0.9457447505819311
154,916,Uncued,154,0,1,1,368,1,0.9623688725955744,0.0376311274044257
155,916,Uncued,155,0,2,2,623,1,0.770495573915561,0.22950442608443897
156,916,Uncued,156,0,2,2,641,1,0.5302851998470268,0.4697148001529732
157,916,Uncued,157,0,2,2,484,2,0.1790936751149632,0.8209063248850368
158,916,Uncued,158,0,1,1,491,1,0.7539512536414927,0.24604874635850726
159,916,Uncued,159,0,2,2,520,1,0.7904474289750524,0.20955257102494765
160,916,Uncued,160,0,1,1,447,2,0.2643307898465468,0.7356692101534532
161,916,Uncued,161,0,2,2,708,1,0.8751160871160005,0.1248839128839995
162,916,Uncued,162,0,2,1,467,1,0.9915138075145293,0.008486192485470632
163,916,Uncued,163,0,2,2,456,2,0.17929442958128816,0.8207055704187118
164,916,Uncued,164,0,2,2,500,1,0.7074967960639906,0.29250320393600937
165,916,Uncued,165,0,1,1,370,1,0.9997920532018351,0.00020794679816495723
166,916,Uncued,166,0,2,2,671,1,0.9811413093956497,0.01885869060435027
167,916,Uncued,167,0,1,1,374,1,0.9871985561256564,0.012801443874343519
168,916,Uncued,168,0,2,2,434,1,0.9473462567344793,0.0526537432655208
169,916,Uncued,169,0,2,2,469,1,0.9055085906186789,0.09449140938132106
170,916,Uncued,170,0,2,2,485,1,0.7080948442894388,0.29190515571056125
171,916,Uncued,171,0,1,1,473,1,0.6462298262906423,0.3537701737093577
172,916,Uncued,172,0,1,1,354,2,0.06046289069748345,0.9395371093025165
173,916,Uncued,173,0,1,2,407,2,0.07444466822458018,0.9255553317754198
174,916,Uncued,174,0,2,2,595,2,0.20451537273305942,0.7954846272669406
175,916,Uncued,175,0,2,2,514,2,0.41628988906685904,0.583710110933141
176,916,Uncued,176,0,2,2,601,1,0.9723485430033876,0.027651456996612436
177,916,Uncued,177,0,1,1,541,1,0.9899405907185108,0.010059409281489164
178,916,Uncued,178,0,2,2,476,1,0.958793922090302,0.041206077909698
179,916,Uncued,179,0,2,2,734,2,0.3935547733646021,0.6064452266353979
0,347,Uncued,0,0,2,2,508,1,0.8916054374337906,0.10839456256620937
1,347,Uncued,1,0,2,2,508,1,0.8409700189080536,0.15902998109194638
2,347,Uncued,2,0,1,1,555,1,0.8552394919108476,0.14476050808915242
3,347,Uncued,3,0,1,1,506,2,0.37240208603156777,0.6275979139684322
4,347,Uncued,4,0,1,1,618,1,0.819257432132515,0.18074256786748505
5,347,Uncued,5,0,2,2,644,1,0.5972544253808922,0.4027455746191077
6,347,Uncued,6,0,2,2,503,1,0.9385066238605557,0.061493376139444306
7,347,Uncued,7,0,1,1,862,2,0.4044408306528928,0.5955591693471072
8,347,Uncued,8,0,2,2,584,1,0.7006419776080772,0.29935802239192283
9,347,Uncued,9,0,1,1,485,2,0.1540016936361599,0.8459983063638401
10,347,Uncued,10,0,2,2,601,1,0.8811906247870049,0.11880937521299506
11,347,Uncued,11,0,1,1,505,1,0.8737206185381999,0.12627938146180004
12,347,Uncued,12,0,2,2,556,1,0.528772589671668,0.4712274103283321
13,347,Uncued,13,0,1,1,521,1,0.6064240211066874,0.3935759788933126
14,347,Uncued,14,0,1,1,623,2,0.22719539541252998,0.77280460458747
15,347,Uncued,15,0,2,2,639,2,0.41628206179961214,0.5837179382003879
16,347,Uncued,16,0,1,1,416,1,0.5500720161418533,0.44992798385814675
17,347,Uncued,17,0,2,2,572,2,0.49564560031534144,0.5043543996846586
18,347,Uncued,18,0,1,1,440,2,0.3510868631456875,0.6489131368543125
19,347,Uncued,19,0,1,1,498,1,0.5742317095337273,0.4257682904662727
20,347,Uncued,20,0,2,2,504,2,0.1910346024004379,0.8089653975995621
21,347,Uncued,21,0,1,1,446,2,0.27241078606611313,0.7275892139338869
22,347,Uncued,22,0,2,2,425,2,0.42623085545452344,0.5737691445454766
23,347,Uncued,23,0,2,2,700,1,0.6312844498885086,0.3687155501114913
24,347,Uncued,24,0,2,2,638,1,0.8562300420786766,0.14376995792132344
25,347,Uncued,25,0,2,2,576,1,0.67332789988413,0.32667210011587
26,347,Uncued,26,0,1,1,812,1,0.5624112766087535,0.43758872339124655
27,347,Uncued,27,0,2,2,545,2,0.37913117468665736,0.6208688253133426
28,347,Uncued,28,0,1,1,511,1,0.7659488250017117,0.2340511749982883
29,347,Uncued,29,0,2,2,419,1,0.8285423586672108,0.17145764133278915
30,347,Uncued,30,0,1,1,571,2,0.4877433159713871,0.5122566840286129
31,347,Uncued,31,0,1,1,492,2,0.2284460609202561,0.7715539390797439
32,347,Uncued,32,0,2,2,580,1,0.543236658425295,0.45676334157470494
33,347,Uncued,33,0,1,1,449,1,0.7450110343637915,0.25498896563620854
34,347,Uncued,34,0,2,2,448,1,0.9509618276517895,0.04903817234821047
35,347,Uncued,35,0,2,2,658,1,0.5989091811199441,0.40109081888005593
36,347,Uncued,36,0,2,2,923,1,0.6911710941192061,0.3088289058807939
37,347,Uncued,37,0,1,1,521,1,0.8370311197206881,0.1629688802793119
38,347,Uncued,38,0,1,1,497,1,0.9153020277865958,0.0846979722134043
39,347,Uncued,39,0,1,1,497,2,0.4533729005775249,0.5466270994224751
40,347,Uncued,40,0,2,2,589,1,0.6984271447880047,0.3015728552119953
41,347,Uncued,41,0,1,1,451,1,0.7224952950070338,0.27750470499296614
42,347,Uncued,42,0,2,2,495,1,0.5332755750702916,0.4667244249297085
43,347,Uncued,43,0,1,1,559,2,0.2649649522421469,0.7350350477578531
44,347,Uncued,44,0,2,2,541,2,0.4154004850898233,0.5845995149101767
45,347,Uncued,45,0,2,2,691,2,0.13964592161476774,0.8603540783852323
46,347,Uncued,46,0,2,2,609,1,0.746756902475614,0.25324309752438595
47,347,Uncued,47,0,2,2,590,2,0.4685118122752454,0.5314881877247546
48,347,Uncued,48,0,1,1,886,1,0.68332214066124,0.31667785933876
49,347,Uncued,49,0,1,1,486,1,0.781565002167191,0.21843499783280895
50,347,Uncued,50,0,2,2,716,2,0.29073403496837247,0.7092659650316275
51,347,Uncued,51,0,2,2,574,2,0.10028713555304458,0.8997128644469554
52,347,Uncued,52,0,2,2,510,2,0.3341214622416281,0.6658785377583719
53,347,Uncued,53,0,2,2,500,1,0.9041407648420369,0.09585923515796312
54,347,Uncued,54,0,2,2,548,1,0.7968642734704365,0.20313572652956344
55,347,Uncued,55,0,2,2,554,2,0.2899464797908936,0.7100535202091064
56,347,Uncued,56,0,1,1,507,1,0.6146925008359087,0.38530749916409135
57,347,Uncued,57,0,1,1,560,2,0.47569748879399854,0.5243025112060015
58,347,Uncued,58,0,1,1,556,1,0.8633220732260586,0.13667792677394144
59,347,Uncued,59,0,1,1,546,2,0.3643719515621623,0.6356280484378377
60,347,Uncued,60,0,2,2,524,2,0.4629895940251342,0.5370104059748658
61,347,Uncued,61,0,1,1,754,1,0.5089415563191229,0.49105844368087714
62,347,Uncued,62,0,2,2,481,1,0.7221026276240545,0.27789737237594553
63,347,Uncued,63,0,2,2,511,2,0.02685861017700264,0.9731413898229974
64,347,Uncued,64,0,1,1,512,1,0.7764406865498934,0.22355931345010654
65,347,Uncued,65,0,2,2,553,1,0.7305130455107556,0.2694869544892445
66,347,Uncued,66,0,1,1,582,2,0.04837365100676749,0.9516263489932325
67,347,Uncued,67,0,1,1,547,1,0.8427277765714818,0.15727222342851818
68,347,Uncued,68,0,1,1,494,2,0.3910885527247997,0.6089114472752003
69,347,Uncued,69,0,1,1,647,1,0.548782203571009,0.4512177964289909
70,347,Uncued,70,0,2,2,640,1,0.6150873750157417,0.3849126249842582
71,347,Uncued,71,0,1,1,472,2,0.44969737634491547,0.5503026236550845
72,347,Uncued,72,0,1,1,417,1,0.7423030667969789,0.2576969332030211
73,347,Uncued,73,0,2,2,548,1,0.8553156039290408,0.14468439607095912
74,347,Uncued,74,0,1,1,465,2,0.24550466680699823,0.7544953331930018
75,347,Uncued,75,0,2,2,500,2,0.054055772064883434,0.9459442279351166
76,347,Uncued,76,0,1,1,488,1,0.843319535238329,0.15668046476167097
77,347,Uncued,77,0,2,2,571,1,0.8860207397237208,0.11397926027627928
78,347,Uncued,78,0,2,2,608,2,0.4607864903347709,0.5392135096652291
79,347,Uncued,79,0,1,1,427,1,0.6455608865408421,0.3544391134591579
80,347,Uncued,80,0,1,1,553,2,0.324706197812895,0.675293802187105
81,347,Uncued,81,0,2,2,670,1,0.5689019123196727,0.4310980876803273
82,347,Uncued,82,0,2,1,676,2,0.2808101722650703,0.7191898277349297
83,347,Uncued,83,0,2,2,767,2,0.4818193608788297,0.5181806391211703
84,347,Uncued,84,0,2,2,747,1,0.5379411055293901,0.4620588944706099
85,347,Uncued,85,0,2,2,515,1,0.872179483461998,0.12782051653800194
86,347,Uncued,86,0,2,2,617,1,0.5966716329729167,0.4033283670270833
87,347,Uncued,87,0,2,2,485,2,0.24598714702208002,0.75401285297792
88,347,Uncued,88,0,1,1,1605,1,0.8527133622514496,0.1472866377485505
89,347,Uncued,89,0,1,1,560,2,0.19880236536078266,0.8011976346392173
90,347,Uncued,90,0,1,1,546,1,0.6781663824496444,0.3218336175503556
91,347,Uncued,91,0,1,1,532,1,0.7726091365792421,0.2273908634207579
92,347,Uncued,92,0,2,2,641,1,0.7535352489543233,0.2464647510456767
93,347,Uncued,93,0,1,1,642,1,0.5628634514638029,0.43713654853619704
94,347,Uncued,94,0,2,2,559,2,0.2808126843782638,0.7191873156217362
95,347,Uncued,95,0,1,1,594,1,0.5155433937818739,0.48445660621812614
96,347,Uncued,96,0,2,2,693,1,0.6014626897920947,0.3985373102079052
97,347,Uncued,97,0,2,2,555,1,0.8598470626573568,0.14015293734264322
98,347,Uncued,98,0,2,2,545,1,0.9444764113828101,0.05552358861718991
99,347,Uncued,99,0,2,2,651,1,0.9387892478559197,0.061210752144080324
100,347,Uncued,100,0,2,2,580,1,0.6512142493332198,0.34878575066678025
101,347,Uncued,101,0,2,2,547,1,0.7664205246181148,0.23357947538188514
102,347,Uncued,102,0,2,2,481,1,0.8776651937256058,0.12233480627439418
103,347,Uncued,103,0,1,1,685,1,0.5623954017722936,0.4376045982277063
104,347,Uncued,104,0,2,2,737,1,0.548319102596005,0.451680897403995
105,347,Uncued,105,0,1,1,1178,1,0.6837616555439805,0.31623834445601945
106,347,Uncued,106,0,2,2,484,1,0.9958313712787644,0.004168628721235576
107,347,Uncued,107,0,2,2,644,2,0.1657649210483676,0.8342350789516324
108,347,Uncued,108,0,1,1,552,1,0.9501114322636656,0.049888567736334447
109,347,Uncued,109,0,2,2,493,2,0.21686495358639168,0.7831350464136083
110,347,Uncued,110,0,2,2,610,2,0.43664176326157333,0.5633582367384267
111,347,Uncued,111,0,2,2,597,1,0.5831382343631006,0.41686176563689936
112,347,Uncued,112,0,2,2,544,2,0.07065914282361208,0.9293408571763879
113,347,Uncued,113,0,2,2,529,2,0.04767232699643753,0.9523276730035625
114,347,Uncued,114,0,2,2,721,2,0.023769812608379848,0.9762301873916202
115,347,Uncued,115,0,2,2,625,2,0.40802166601064094,0.5919783339893591
116,347,Uncued,116,0,2,2,555,2,0.15801415471187763,0.8419858452881224
117,347,Uncued,117,0,2,2,736,1,0.8727064999591746,0.12729350004082537
118,347,Uncued,118,0,1,1,735,1,0.7571310260089588,0.24286897399104124
119,347,Uncued,119,0,1,1,512,2,0.3019152037420929,0.6980847962579071
120,347,Uncued,120,0,1,1,696,1,0.9810704191486471,0.018929580851352875
121,347,Uncued,121,0,2,2,472,1,0.8447570282391628,0.1552429717608373
122,347,Uncued,122,0,2,2,520,1,0.7755561388467606,0.22444386115323947
123,347,Uncued,123,0,1,1,551,1,0.5224067067278724,0.4775932932721276
124,347,Uncued,124,0,1,1,472,1,0.6742131516894962,0.3257868483105038
125,347,Uncued,125,0,1,1,564,1,0.5262162242029549,0.47378377579704517
126,347,Uncued,126,0,1,1,586,2,0.3437726043289716,0.6562273956710284
127,347,Uncued,127,0,1,1,616,2,0.4661256182522264,0.5338743817477736
128,347,Uncued,128,0,2,2,715,1,0.8699079056136177,0.13009209438638222
129,347,Uncued,129,0,2,2,505,1,0.6642026921853641,0.33579730781463585
130,347,Uncued,130,0,2,2,561,1,0.8549682650999659,0.14503173490003413
131,347,Uncued,131,0,1,1,614,2,0.4608230850539182,0.5391769149460818
132,347,Uncued,132,0,2,2,634,1,0.7538261584621596,0.24617384153784042
133,347,Uncued,133,0,2,2,480,2,0.43896085764117465,0.5610391423588253
134,347,Uncued,134,0,1,1,626,2,0.40404405558869505,0.595955944411305
135,347,Uncued,135,0,2,2,474,1,0.7022632989553097,0.29773670104469024
136,347,Uncued,136,0,1,1,591,2,0.3766131743520984,0.6233868256479016
137,347,Uncued,137,0,1,1,587,1,0.8060755600619207,0.19392443993807928
138,347,Uncued,138,0,2,2,828,1,0.528853344458763,0.471146655541237
139,347,Uncued,139,0,1,1,575,2,0.30258282460449704,0.697417175395503
140,347,Uncued,140,0,2,2,435,1,0.6006911982568865,0.3993088017431135
141,347,Uncued,141,0,1,1,562,2,0.4916253005313648,0.5083746994686352
142,347,Uncued,142,0,1,1,536,2,0.26273580804629515,0.7372641919537049
143,347,Uncued,143,0,2,2,488,2,0.20880479763810456,0.7911952023618954
144,347,Uncued,144,0,1,1,483,2,0.3712330966743541,0.6287669033256459
145,347,Uncued,145,0,1,1,570,2,0.4379479312511746,0.5620520687488254
146,347,Uncued,146,0,2,2,611,1,0.7726517097719805,0.2273482902280195
147,347,Uncued,147,0,2,2,636,1,0.62133449922207,0.3786655007779301
148,347,Uncued,148,0,1,1,655,2,0.1740826503311309,0.8259173496688691
149,347,Uncued,149,0,1,1,445,2,0.31330541580072424,0.6866945841992758
150,347,Uncued,150,0,1,1,424,2,0.03914870726961728,0.9608512927303827
151,347,Uncued,151,0,1,1,476,1,0.819877061625554,0.1801229383744461
152,347,Uncued,152,0,1,1,481,2,0.339078270161573,0.660921729838427
153,347,Uncued,153,0,2,2,521,2,0.271076813338078,0.728923186661922
154,347,Uncued,154,0,1,1,514,1,0.555035250626086,0.4449647493739139
155,347,Uncued,155,0,1,1,627,2,0.05007862968843024,0.9499213703115698
156,347,Uncued,156,0,1,1,517,1,0.5415817295497432,0.4584182704502568
157,347,Uncued,157,0,2,2,508,2,0.19024293864159725,0.8097570613584028
158,347,Uncued,158,0,2,2,867,1,0.70586140599011,0.29413859400988995
159,347,Uncued,159,0,2,2,687,2,0.4994499730093579,0.5005500269906421
160,347,Uncued,160,0,2,2,1067,2,0.40140915146165224,0.5985908485383478
161,347,Uncued,161,0,2,2,488,1,0.7279107475286852,0.27208925247131477
162,347,Uncued,162,0,1,1,768,1,0.6978123298873671,0.3021876701126329
163,347,Uncued,163,0,2,2,564,1,0.8303170804879054,0.16968291951209458
164,347,Uncued,164,0,1,1,608,2,0.070467500392835,0.929532499607165
165,347,Uncued,165,0,2,2,451,1,0.5873657847467373,0.4126342152532627
166,347,Uncued,166,0,1,1,488,2,0.29194604095492604,0.708053959045074
167,347,Uncued,167,0,2,2,536,2,0.3139745637351449,0.6860254362648551
168,347,Uncued,168,0,1,1,566,2,0.4685741769339028,0.5314258230660972
169,347,Uncued,169,0,1,1,622,2,0.21771094950413794,0.7822890504958621
170,347,Uncued,170,0,2,2,648,1,0.8458176564149853,0.15418234358501473
171,347,Uncued,171,0,2,2,780,1,0.6399932567809523,0.36000674321904763
172,347,Uncued,172,0,1,1,568,1,0.8623655001589903,0.13763449984100976
173,347,Uncued,173,0,2,2,762,2,0.43150925466417334,0.5684907453358267
174,347,Uncued,174,0,1,1,735,1,0.6718312274052735,0.32816877259472654
175,347,Uncued,175,0,1,1,533,2,0.10686088317379505,0.893139116826205
176,347,Uncued,176,0,2,2,579,2,0.3002694015451036,0.6997305984548964
177,347,Uncued,177,0,1,1,544,2,0.08019517144906563,0.9198048285509344
178,347,Uncued,178,0,2,2,558,1,0.7955237843922874,0.20447621560771256
179,347,Uncued,179,0,1,1,547,2,0.24756118060717358,0.7524388193928264
0,766,Uncued,0,0,1,1,427,1,0.677035359346181,0.322964640653819
1,766,Uncued,1,0,2,2,543,2,0.40800793667126845,0.5919920633287316
2,766,Uncued,2,0,2,2,491,1,0.8501062307622174,0.14989376923778258
3,766,Uncued,3,0,2,2,575,1,0.9306214368944877,0.06937856310551228
4,766,Uncued,4,0,1,1,372,1,0.6194434484654892,0.38055655153451085
5,766,Uncued,5,0,2,2,390,1,0.8601425945442471,0.13985740545575287
6,766,Uncued,6,0,2,2,515,1,0.8559174317694319,0.1440825682305681
7,766,Uncued,7,0,2,2,425,1,0.9781746238652781,0.021825376134721932
8,766,Uncued,8,0,2,2,446,1,0.9796388678888025,0.02036113211119749
9,766,Uncued,9,0,1,1,421,2,0.26737491796216006,0.7326250820378399
10,766,Uncued,10,0,2,2,574,2,0.06653956883740708,0.9334604311625929
11,766,Uncued,11,0,2,2,475,1,0.6248855473787935,0.37511445262120646
12,766,Uncued,12,0,1,1,467,2,0.13745872990242236,0.8625412700975776
13,766,Uncued,13,0,2,2,468,1,0.9473813874220369,0.052618612577963096
14,766,Uncued,14,0,2,2,544,1,0.8286472293547041,0.17135277064529586
15,766,Uncued,15,0,1,1,340,2,0.15208062380102638,0.8479193761989736
16,766,Uncued,16,0,2,2,503,1,0.856901457784079,0.14309854221592103
17,766,Uncued,17,0,1,1,280,1,0.7116856111190207,0.28831438888097927
18,766,Uncued,18,0,1,2,409,1,0.701000688605028,0.298999311394972
19,766,Uncued,19,0,1,1,515,1,0.9740895469885402,0.025910453011459743
20,766,Uncued,20,0,2,2,422,1,0.9866244468135981,0.013375553186401915
21,766,Uncued,21,0,2,2,581,2,0.3448427917381902,0.6551572082618098
22,766,Uncued,22,0,2,2,540,2,0.24129696542614898,0.758703034573851
23,766,Uncued,23,0,1,1,378,1,0.6200078112538732,0.3799921887461268
24,766,Uncued,24,0,2,2,542,2,0.06835732047901222,0.9316426795209878
25,766,Uncued,25,0,2,2,626,2,0.4801915669170662,0.5198084330829338
26,766,Uncued,26,0,2,2,428,1,0.8949430203213418,0.10505697967865821
27,766,Uncued,27,0,1,1,350,1,0.9442028925073401,0.05579710749265982
28,766,Uncued,28,0,1,1,447,1,0.9457044755799153,0.05429552442008466
29,766,Uncued,29,0,1,1,408,1,0.9655768716595762,0.03442312834042378
30,766,Uncued,30,0,1,1,403,2,0.22743326037171618,0.7725667396282838
31,766,Uncued,31,0,1,1,406,1,0.9875193611228095,0.012480638877190555
32,766,Uncued,32,0,1,1,425,1,0.9666908113175317,0.033309188682468314
33,766,Uncued,33,0,1,1,430,2,0.23940675528034194,0.7605932447196581
34,766,Uncued,34,0,1,1,363,1,0.9951600790981254,0.004839920901874574
35,766,Uncued,35,0,2,2,501,1,0.9533085894759383,0.04669141052406163
36,766,Uncued,36,0,2,2,414,1,0.7653332883575248,0.23466671164247524
37,766,Uncued,37,0,2,2,461,1,0.7749402801336378,0.22505971986636225
38,766,Uncued,38,0,1,1,550,1,0.9933679322761142,0.006632067723885831
39,766,Uncued,39,0,2,2,554,1,0.9158586493158226,0.0841413506841774
40,766,Uncued,40,0,2,2,544,2,0.1585648985574979,0.8414351014425021
41,766,Uncued,41,0,1,1,279,1,0.9991805584304438,0.0008194415695561782
42,766,Uncued,42,0,1,1,500,1,0.8283285458234633,0.1716714541765368
43,766,Uncued,43,0,2,2,432,1,0.6549910340272855,0.3450089659727145
44,766,Uncued,44,0,1,1,570,1,0.7106267105712811,0.2893732894287188
45,766,Uncued,45,0,2,2,421,2,0.1435717766764837,0.8564282233235163
46,766,Uncued,46,0,1,1,495,1,0.8081775501655502,0.19182244983444982
47,766,Uncued,47,0,1,1,435,1,0.705077497138505,0.2949225028614951
48,766,Uncued,48,0,2,2,402,1,0.720787923541413,0.2792120764585871
49,766,Uncued,49,0,1,1,422,2,0.4235060196018481,0.5764939803981519
50,766,Uncued,50,0,1,1,493,1,0.6873095693207869,0.3126904306792131
51,766,Uncued,51,0,2,2,549,2,0.2952430781070897,0.7047569218929103
52,766,Uncued,52,0,1,1,735,1,0.6197784393893107,0.38022156061068935
53,766,Uncued,53,0,1,1,565,2,0.22990489520225665,0.7700951047977433
54,766,Uncued,54,0,2,2,474,1,0.8371912250193133,0.16280877498068666
55,766,Uncued,55,0,2,2,675,1,0.7859764419680377,0.2140235580319622
56,766,Uncued,56,0,1,1,339,1,0.9841112471967033,0.015888752803296758
57,766,Uncued,57,0,1,1,414,1,0.8687877230384023,0.13121227696159768
58,766,Uncued,58,0,2,2,436,1,0.9878063609742568,0.012193639025743263
59,766,Uncued,59,0,1,1,536,2,0.49128348474554806,0.5087165152544519
60,766,Uncued,60,0,2,2,445,1,0.9865951185367167,0.013404881463283305
61,766,Uncued,61,0,2,2,466,1,0.8480039662322265,0.15199603376777354
62,766,Uncued,62,0,1,1,370,1,0.7059969863321298,0.29400301366787024
63,766,Uncued,63,0,1,1,398,1,0.9769763239698411,0.02302367603015883
64,766,Uncued,64,0,1,1,442,1,0.9944181655123505,0.005581834487649526
65,766,Uncued,65,0,1,1,516,1,0.8080026997643733,0.19199730023562667
66,766,Uncued,66,0,1,1,515,2,0.04758261423528798,0.952417385764712
67,766,Uncued,67,0,2,2,408,1,0.9918862738260561,0.008113726173943894
68,766,Uncued,68,0,1,1,467,1,0.9143764492841545,0.08562355071584549
69,766,Uncued,69,0,1,1,479,1,0.5493164455511486,0.45068355444885144
70,766,Uncued,70,0,1,1,431,1,0.9798336391951664,0.02016636080483354
71,766,Uncued,71,0,2,2,506,1,0.8413988922307007,0.15860110776929928
72,766,Uncued,72,0,1,1,473,1,0.9010574744169213,0.09894252558307864
73,766,Uncued,73,0,2,2,634,1,0.9812684286752155,0.0187315713247845
74,766,Uncued,74,0,1,1,326,1,0.6710363888978044,0.3289636111021956
75,766,Uncued,75,0,2,2,399,1,0.8976455304233194,0.10235446957668055
76,766,Uncued,76,0,2,2,650,1,0.9184202302674033,0.08157976973259669
77,766,Uncued,77,0,1,1,387,2,0.28339017450316173,0.7166098254968383
78,766,Uncued,78,0,1,1,381,1,0.6444805506150216,0.35551944938497837
79,766,Uncued,79,0,1,1,464,1,0.8484168560059092,0.1515831439940908
80,766,Uncued,80,0,2,2,553,1,0.911847092233714,0.08815290776628608
81,766,Uncued,81,0,1,1,440,1,0.8469338100622317,0.1530661899377683
82,766,Uncued,82,0,2,2,384,1,0.894108877092898,0.10589112290710205
83,766,Uncued,83,0,2,2,485,1,0.6822258396104697,0.3177741603895304
84,766,Uncued,84,0,1,1,785,1,0.5494767502737324,0.45052324972626756
85,766,Uncued,85,0,1,1,353,2,0.24787980828447265,0.7521201917155274
86,766,Uncued,86,0,1,1,400,1,0.9325654459630427,0.06743455403695729
87,766,Uncued,87,0,1,1,452,1,0.9728574947631331,0.02714250523686686
88,766,Uncued,88,0,1,1,371,1,0.7197088023489491,0.28029119765105087
89,766,Uncued,89,0,1,1,401,1,0.9823200282725878,0.01767997172741219
90,766,Uncued,90,0,2,2,717,1,0.9464334194148307,0.05356658058516932
91,766,Uncued,91,0,1,1,533,1,0.9853461273833475,0.014653872616652557
92,766,Uncued,92,0,1,1,452,1,0.8272181674476917,0.17278183255230825
93,766,Uncued,93,0,1,1,509,1,0.9912387649261827,0.008761235073817372
94,766,Uncued,94,0,2,2,493,1,0.6442202428486921,0.35577975715130794
95,766,Uncued,95,0,1,1,342,1,0.622633500945841,0.3773664990541589
96,766,Uncued,96,0,1,1,404,1,0.9983469017388419,0.0016530982611581123
97,766,Uncued,97,0,2,2,428,1,0.7601251378281892,0.23987486217181075
98,766,Uncued,98,0,2,2,591,1,0.9722776369101491,0.027722363089850918
99,766,Uncued,99,0,1,1,352,1,0.997983614798116,0.002016385201883987
100,766,Uncued,100,0,2,2,663,1,0.7860072082675393,0.21399279173246066
101,766,Uncued,101,0,1,1,384,1,0.9429451934021428,0.05705480659785717
102,766,Uncued,102,0,1,1,418,2,0.33602001126454784,0.6639799887354522
103,766,Uncued,103,0,1,1,357,2,0.10746836993465247,0.8925316300653475
104,766,Uncued,104,0,1,1,436,1,0.5342323197520346,0.46576768024796544
105,766,Uncued,105,0,2,2,753,2,0.48809293185689717,0.5119070681431028
106,766,Uncued,106,0,1,1,438,1,0.6624312132937584,0.3375687867062416
107,766,Uncued,107,0,2,2,407,1,0.7579054102464989,0.24209458975350107
108,766,Uncued,108,0,1,1,426,1,0.679357930786843,0.32064206921315697
109,766,Uncued,109,0,1,1,428,1,0.9879411686436637,0.012058831356336385
110,766,Uncued,110,0,2,2,434,1,0.7150227443286182,0.28497725567138177
111,766,Uncued,111,0,1,1,341,1,0.5631071064061663,0.4368928935938336
112,766,Uncued,112,0,1,1,435,2,0.4753066559823571,0.5246933440176429
113,766,Uncued,113,0,1,1,410,1,0.9230975473530018,0.07690245264699827
114,766,Uncued,114,0,2,2,426,1,0.9839874014758144,0.016012598524185562
115,766,Uncued,115,0,1,1,361,2,0.37840175509717244,0.6215982449028276
116,766,Uncued,116,0,2,2,391,1,0.7684274724761284,0.23157252752387156
117,766,Uncued,117,0,1,1,390,1,0.8911847603518822,0.10881523964811782
118,766,Uncued,118,0,2,2,380,2,0.2373691675243561,0.7626308324756439
119,766,Uncued,119,0,1,1,473,2,0.45240215112931936,0.5475978488706806
120,766,Uncued,120,0,1,1,388,1,0.856009283283941,0.14399071671605895
121,766,Uncued,121,0,2,2,404,1,0.9747957798048301,0.025204220195169835
122,766,Uncued,122,0,2,2,463,1,0.8229140361014793,0.17708596389852074
123,766,Uncued,123,0,1,1,408,1,0.9927340126852475,0.007265987314752508
124,766,Uncued,124,0,1,1,337,1,0.8224580475364015,0.17754195246359852
125,766,Uncued,125,0,2,2,383,1,0.7269441667608232,0.27305583323917676
126,766,Uncued,126,0,1,1,390,1,0.8072576361191222,0.19274236388087784
127,766,Uncued,127,0,1,2,412,1,0.9376137983965296,0.06238620160347039
128,766,Uncued,128,0,1,1,359,1,0.9929662454554066,0.007033754544593375
129,766,Uncued,129,0,2,2,436,1,0.5912427249456695,0.4087572750543304
130,766,Uncued,130,0,2,2,531,1,0.8353962028318843,0.16460379716811566
131,766,Uncued,131,0,1,1,369,1,0.53264128039054,0.46735871960946
132,766,Uncued,132,0,1,1,562,1,0.9986555968874518,0.0013444031125482946
133,766,Uncued,133,0,2,2,575,1,0.918822883887803,0.08117711611219708
134,766,Uncued,134,0,2,2,419,1,0.9455376001161903,0.0544623998838097
135,766,Uncued,135,0,2,2,449,2,0.3519982568255342,0.6480017431744658
136,766,Uncued,136,0,2,2,394,1,0.5032921983586752,0.4967078016413248
137,766,Uncued,137,0,2,2,455,1,0.8754516517912176,0.12454834820878234
138,766,Uncued,138,0,2,2,544,2,0.2677394090784223,0.7322605909215777
139,766,Uncued,139,0,1,2,414,2,0.375612139937864,0.624387860062136
140,766,Uncued,140,0,1,1,325,1,0.8617016827631386,0.13829831723686134
141,766,Uncued,141,0,2,2,595,1,0.822613811969592,0.17738618803040795
142,766,Uncued,142,0,2,2,396,1,0.9421346710942218,0.05786532890577828
143,766,Uncued,143,0,1,1,387,2,0.4402508126816348,0.5597491873183652
144,766,Uncued,144,0,2,2,430,1,0.5917150187646742,0.4082849812353258
145,766,Uncued,145,0,1,1,459,1,0.9618235414644455,0.03817645853555448
146,766,Uncued,146,0,1,1,518,1,0.9425022113558554,0.05749778864414456
147,766,Uncued,147,0,2,2,708,1,0.5248090139695635,0.4751909860304365
148,766,Uncued,148,0,1,1,547,1,0.9833795523409752,0.016620447659024793
149,766,Uncued,149,0,2,2,424,1,0.932955255444881,0.06704474455511901
150,766,Uncued,150,0,2,2,506,2,0.4921918844383041,0.5078081155616959
151,766,Uncued,151,0,1,1,392,1,0.9603261694925689,0.03967383050743106
152,766,Uncued,152,0,1,1,414,1,0.9167410653317325,0.08325893466826755
153,766,Uncued,153,0,2,2,449,1,0.7318364293736499,0.2681635706263501
154,766,Uncued,154,0,2,2,522,1,0.8159259554554905,0.1840740445445095
155,766,Uncued,155,0,2,2,400,1,0.9264712029197819,0.07352879708021806
156,766,Uncued,156,0,1,1,313,1,0.6585955145196956,0.3414044854803044
157,766,Uncued,157,0,1,1,391,1,0.9273585818928162,0.07264141810718384
158,766,Uncued,158,0,2,2,414,1,0.5232269602676318,0.4767730397323682
159,766,Uncued,159,0,2,2,737,1,0.9216620269864466,0.07833797301355337
160,766,Uncued,160,0,2,2,412,1,0.6867429175718703,0.31325708242812966
161,766,Uncued,161,0,1,1,359,1,0.5306794741058481,0.46932052589415185
162,766,Uncued,162,0,1,1,428,1,0.5405951932627417,0.4594048067372583
163,766,Uncued,163,0,2,2,447,1,0.8975069880893471,0.10249301191065283
164,766,Uncued,164,0,1,1,401,2,0.1243239850518596,0.8756760149481404
165,766,Uncued,165,0,1,1,372,1,0.531664214443998,0.4683357855560019
166,766,Uncued,166,0,2,2,525,2,0.32033893189255946,0.6796610681074405
167,766,Uncued,167,0,2,2,452,1,0.7086001228114943,0.2913998771885057
168,766,Uncued,168,0,1,1,491,1,0.8708863489592787,0.12911365104072126
169,766,Uncued,169,0,1,1,401,1,0.7635033245819774,0.23649667541802252
170,766,Uncued,170,0,1,1,432,1,0.9290357373496626,0.07096426265033741
171,766,Uncued,171,0,2,2,452,1,0.9223533177817643,0.07764668221823566
172,766,Uncued,172,0,1,1,430,1,0.6074835258879538,0.39251647411204615
173,766,Uncued,173,0,2,2,455,1,0.8799261103930689,0.12007388960693113
174,766,Uncued,174,0,2,2,477,1,0.9116463907641325,0.08835360923586755
175,766,Uncued,175,0,2,2,573,1,0.8108740582007996,0.18912594179920034
176,766,Uncued,176,0,2,2,458,1,0.9908194147439867,0.009180585256013285
177,766,Uncued,177,0,2,2,491,1,0.6346996836215336,0.3653003163784664
178,766,Uncued,178,0,2,2,563,1,0.9763199808922803,0.023680019107719698
179,766,Uncued,179,0,2,2,448,1,0.7257578478113824,0.27424215218861764
0,661,Uncued,0,0,2,2,447,2,0.3678847227557689,0.6321152772442311
1,661,Uncued,1,0,1,1,311,2,0.1275131243337081,0.8724868756662919
2,661,Uncued,2,0,1,1,431,1,0.7518813418060857,0.24811865819391432
3,661,Uncued,3,0,2,2,441,1,0.5285513095094153,0.4714486904905847
4,661,Uncued,4,0,2,2,424,2,0.4815500812298681,0.5184499187701319
5,661,Uncued,5,0,1,1,347,2,0.3651190789827331,0.6348809210172669
6,661,Uncued,6,0,1,1,433,1,0.799889367413035,0.200110632586965
7,661,Uncued,7,0,2,2,458,1,0.5511042610863097,0.44889573891369033
8,661,Uncued,8,0,1,1,443,2,0.3901199451874665,0.6098800548125335
9,661,Uncued,9,0,2,2,429,2,0.2512223630675178,0.7487776369324822
10,661,Uncued,10,0,1,1,427,1,0.7575799116714236,0.24242008832857645
11,661,Uncued,11,0,1,1,583,1,0.7086780244894579,0.291321975510542
12,661,Uncued,12,0,1,1,475,1,0.6549403509322504,0.3450596490677496
13,661,Uncued,13,0,1,1,428,1,0.7116285752164115,0.2883714247835885
14,661,Uncued,14,0,1,1,437,1,0.616186124599855,0.383813875400145
15,661,Uncued,15,0,2,2,453,2,0.4145557967459481,0.5854442032540519
16,661,Uncued,16,0,2,2,483,1,0.6933676109522608,0.3066323890477392
17,661,Uncued,17,0,2,2,473,1,0.7811758134531372,0.2188241865468627
18,661,Uncued,18,0,2,2,482,1,0.5172804364915009,0.48271956350849915
19,661,Uncued,19,0,1,1,327,1,0.6996426770092838,0.3003573229907162
20,661,Uncued,20,0,2,2,545,1,0.6012085821411426,0.39879141785885736
21,661,Uncued,21,0,2,2,444,1,0.606885630931199,0.39311436906880104
22,661,Uncued,22,0,1,1,326,2,0.33614350174026775,0.6638564982597323
23,661,Uncued,23,0,2,2,543,1,0.8566478669763996,0.14335213302360042
24,661,Uncued,24,0,1,1,348,1,0.811050091130523,0.1889499088694771
25,661,Uncued,25,0,1,1,570,2,0.4289090214019955,0.5710909785980045
26,661,Uncued,26,0,1,1,452,2,0.4841917211874057,0.5158082788125943
27,661,Uncued,27,0,1,1,484,2,0.3870342294494049,0.6129657705505951
28,661,Uncued,28,0,2,2,571,2,0.16157997891430464,0.8384200210856954
29,661,Uncued,29,0,1,1,439,2,0.4715450078726927,0.5284549921273073
30,661,Uncued,30,0,1,1,380,1,0.8086137189808518,0.1913862810191482
31,661,Uncued,31,0,2,2,504,2,0.34225874384182076,0.6577412561581792
32,661,Uncued,32,0,1,1,513,1,0.8077218648620904,0.19227813513790962
33,661,Uncued,33,0,1,1,413,1,0.7169405580896144,0.28305944191038557
34,661,Uncued,34,0,2,2,457,1,0.7263548716286387,0.27364512837136135
35,661,Uncued,35,0,2,2,458,2,0.3557017408244183,0.6442982591755817
36,661,Uncued,36,0,2,2,529,2,0.3858815023208968,0.6141184976791032
37,661,Uncued,37,0,1,1,412,2,0.22482254097470333,0.7751774590252967
38,661,Uncued,38,0,1,1,463,1,0.7601856468492549,0.2398143531507451
39,661,Uncued,39,0,1,1,562,1,0.5411420012497153,0.45885799875028466
40,661,Uncued,40,0,2,2,408,1,0.6314556265030421,0.3685443734969579
41,661,Uncued,41,0,2,2,470,2,0.2705453461064917,0.7294546538935083
42,661,Uncued,42,0,2,2,454,2,0.45160266960152917,0.5483973303984708
43,661,Uncued,43,0,1,1,389,2,0.342269262762006,0.657730737237994
44,661,Uncued,44,0,1,1,446,2,0.39761540950257,0.60238459049743
45,661,Uncued,45,0,2,2,454,1,0.5071902769884313,0.49280972301156867
46,661,Uncued,46,0,1,1,473,1,0.5987259568814189,0.40127404311858106
47,661,Uncued,47,0,2,2,506,2,0.23204491872634248,0.7679550812736575
48,661,Uncued,48,0,1,1,497,2,0.4843895669040311,0.5156104330959689
49,661,Uncued,49,0,1,1,438,2,0.3244709425944171,0.6755290574055829
50,661,Uncued,50,0,1,1,442,2,0.2982413180623925,0.7017586819376075
51,661,Uncued,51,0,2,2,497,1,0.5100746736087883,0.48992532639121167
52,661,Uncued,52,0,1,1,311,1,0.5233229298587099,0.4766770701412902
53,661,Uncued,53,0,2,2,447,1,0.6424351060740734,0.3575648939259266
54,661,Uncued,54,0,1,1,377,2,0.3236817739992274,0.6763182260007726
55,661,Uncued,55,0,1,1,386,2,0.42308601069685736,0.5769139893031426
56,661,Uncued,56,0,1,1,456,1,0.9219455098653188,0.07805449013468124
57,661,Uncued,57,0,1,1,419,2,0.3308224214505776,0.6691775785494224
58,661,Uncued,58,0,1,1,372,2,0.3347761200591082,0.6652238799408918
59,661,Uncued,59,0,2,2,424,1,0.7101106656207329,0.2898893343792671
60,661,Uncued,60,0,2,2,485,1,0.617250419057655,0.382749580942345
61,661,Uncued,61,0,2,2,447,1,0.9360701549952514,0.06392984500474864
62,661,Uncued,62,0,1,1,432,1,0.5971521898802241,0.4028478101197759
63,661,Uncued,63,0,2,2,434,1,0.7249408860787072,0.2750591139212928
64,661,Uncued,64,0,2,2,477,1,0.7244736041951103,0.27552639580488963
65,661,Uncued,65,0,1,1,462,1,0.7050233358840973,0.29497666411590273
66,661,Uncued,66,0,2,2,504,1,0.6374206777248455,0.36257932227515455
67,661,Uncued,67,0,2,2,537,1,0.8186982742081759,0.18130172579182408
68,661,Uncued,68,0,1,1,431,2,0.4829410645602006,0.5170589354397994
69,661,Uncued,69,0,1,1,589,2,0.18721429560198533,0.8127857043980147
70,661,Uncued,70,0,2,2,563,2,0.19578699171875724,0.8042130082812428
71,661,Uncued,71,0,1,1,429,1,0.6709624115298873,0.3290375884701126
72,661,Uncued,72,0,2,2,432,2,0.11076063333481201,0.889239366665188
73,661,Uncued,73,0,1,1,489,1,0.7684580442341268,0.23154195576587325
74,661,Uncued,74,0,1,1,388,1,0.5898735915190227,0.4101264084809773
75,661,Uncued,75,0,1,1,456,2,0.3576998596461588,0.6423001403538412
76,661,Uncued,76,0,1,1,384,2,0.4969917444573638,0.5030082555426362
77,661,Uncued,77,0,2,2,461,1,0.715939128010528,0.28406087198947205
78,661,Uncued,78,0,1,1,341,1,0.8090458758014221,0.19095412419857788
79,661,Uncued,79,0,2,2,517,2,0.1722759674448079,0.8277240325551921
80,661,Uncued,80,0,2,2,436,2,0.4551869041481239,0.5448130958518761
81,661,Uncued,81,0,1,1,306,1,0.9190452099976825,0.0809547900023175
82,661,Uncued,82,0,2,2,469,2,0.4051303820690749,0.5948696179309251
83,661,Uncued,83,0,1,1,345,1,0.7870061058684419,0.21299389413155814
84,661,Uncued,84,0,1,1,527,1,0.5604900132294063,0.4395099867705937
85,661,Uncued,85,0,2,2,438,1,0.5558497126186219,0.44415028738137813
86,661,Uncued,86,0,1,1,352,1,0.5801177122249831,0.4198822877750169
87,661,Uncued,87,0,2,2,906,1,0.9445391036433884,0.055460896356611576
88,661,Uncued,88,0,1,1,413,1,0.8893646247870045,0.1106353752129955
89,661,Uncued,89,0,2,2,420,2,0.4706282505929048,0.5293717494070952
90,661,Uncued,90,0,2,2,457,2,0.41008200052837573,0.5899179994716243
91,661,Uncued,91,0,2,2,491,2,0.42015607059140225,0.5798439294085977
92,661,Uncued,92,0,2,2,592,2,0.43021572768584304,0.569784272314157
93,661,Uncued,93,0,2,2,491,1,0.5949483525526207,0.4050516474473793
94,661,Uncued,94,0,2,2,652,2,0.3294133808233223,0.6705866191766777
95,661,Uncued,95,0,2,2,432,1,0.8753387906420798,0.1246612093579202
96,661,Uncued,96,0,1,1,714,1,0.5685778995086683,0.4314221004913317
97,661,Uncued,97,0,1,1,541,2,0.40040999262542365,0.5995900073745764
98,661,Uncued,98,0,2,2,411,2,0.3915935293962024,0.6084064706037976
99,661,Uncued,99,0,1,1,304,1,0.7141971012922219,0.2858028987077781
100,661,Uncued,100,0,1,1,415,2,0.4722123524992601,0.5277876475007399
101,661,Uncued,101,0,1,1,420,2,0.3806865426029885,0.6193134573970115
102,661,Uncued,102,0,2,2,430,1,0.9550222257439622,0.044977774256037814
103,661,Uncued,103,0,1,1,424,1,0.7529897294850079,0.2470102705149921
104,661,Uncued,104,0,1,1,431,1,0.6914610002163597,0.3085389997836403
105,661,Uncued,105,0,2,2,431,2,0.2546836095912529,0.7453163904087471
106,661,Uncued,106,0,1,1,418,2,0.4163601807712217,0.5836398192287783
107,661,Uncued,107,0,1,1,405,2,0.07325103804443978,0.9267489619555602
108,661,Uncued,108,0,2,2,430,1,0.7189982742766865,0.28100172572331344
109,661,Uncued,109,0,1,1,364,1,0.5521210665968904,0.4478789334031096
110,661,Uncued,110,0,2,2,421,1,0.7814002859520276,0.2185997140479724
111,661,Uncued,111,0,2,2,527,2,0.343548185134549,0.656451814865451
112,661,Uncued,112,0,2,2,462,1,0.5647404294242587,0.4352595705757413
113,661,Uncued,113,0,2,2,424,2,0.4196496095641914,0.5803503904358086
114,661,Uncued,114,0,1,1,438,2,0.4607379662848289,0.5392620337151711
115,661,Uncued,115,0,2,2,456,2,0.29780687629045444,0.7021931237095456
116,661,Uncued,116,0,1,1,390,1,0.5229667443774246,0.4770332556225754
117,661,Uncued,117,0,1,1,386,2,0.4394072697849818,0.5605927302150182
118,661,Uncued,118,0,2,2,398,1,0.7633383265268918,0.23666167347310815
119,661,Uncued,119,0,1,1,298,1,0.721503941361414,0.27849605863858595
120,661,Uncued,120,0,1,1,296,2,0.4828239222336942,0.5171760777663058
121,661,Uncued,121,0,2,2,470,2,0.4984803549339917,0.5015196450660083
122,661,Uncued,122,0,2,2,446,1,0.6846030936941994,0.3153969063058007
123,661,Uncued,123,0,1,1,317,2,0.37754546145342405,0.622454538546576
124,661,Uncued,124,0,1,1,420,2,0.2567490584127279,0.7432509415872721
125,661,Uncued,125,0,1,1,442,2,0.4754198430076835,0.5245801569923165
126,661,Uncued,126,0,1,1,412,1,0.649278880616016,0.350721119383984
127,661,Uncued,127,0,1,1,326,1,0.8098570993832332,0.1901429006167668
128,661,Uncued,128,0,2,2,486,2,0.17488473569863539,0.8251152643013646
129,661,Uncued,129,0,2,2,477,1,0.731941480126165,0.268058519873835
130,661,Uncued,130,0,2,2,421,1,0.5854074543487875,0.4145925456512125
131,661,Uncued,131,0,1,2,479,2,0.4868080681251974,0.5131919318748026
132,661,Uncued,132,0,2,2,516,1,0.5961080500419365,0.4038919499580636
133,661,Uncued,133,0,2,2,483,2,0.49624656608195483,0.5037534339180452
134,661,Uncued,134,0,1,1,388,2,0.3223450109932936,0.6776549890067064
135,661,Uncued,135,0,2,2,466,2,0.38050895185517397,0.619491048144826
136,661,Uncued,136,0,2,2,547,1,0.6013250309699134,0.39867496903008653
137,661,Uncued,137,0,1,1,446,2,0.09926598077577764,0.9007340192242224
138,661,Uncued,138,0,1,1,352,2,0.19384395114145048,0.8061560488585495
139,661,Uncued,139,0,1,1,355,1,0.6791431331950295,0.32085686680497055
140,661,Uncued,140,0,1,1,415,2,0.2697087239323114,0.7302912760676886
141,661,Uncued,141,0,1,1,450,2,0.47797325521502454,0.5220267447849755
142,661,Uncued,142,0,2,2,428,1,0.7108046516287114,0.2891953483712885
143,661,Uncued,143,0,1,1,350,1,0.5156848400182928,0.48431515998170716
144,661,Uncued,144,0,2,2,448,2,0.347115366410104,0.652884633589896
145,661,Uncued,145,0,1,1,347,2,0.30272436393772373,0.6972756360622763
146,661,Uncued,146,0,1,1,353,2,0.4616412434799534,0.5383587565200466
147,661,Uncued,147,0,1,1,429,1,0.5336930042159636,0.4663069957840364
148,661,Uncued,148,0,2,2,414,1,0.5368706948687572,0.46312930513124284
149,661,Uncued,149,0,2,2,505,2,0.32767043102525395,0.672329568974746
150,661,Uncued,150,0,2,2,476,2,0.4851408720585182,0.5148591279414818
151,661,Uncued,151,0,2,2,461,2,0.26223585393358717,0.7377641460664128
152,661,Uncued,152,0,1,1,360,1,0.5551899075950351,0.4448100924049649
153,661,Uncued,153,0,1,1,326,2,0.15673366381858278,0.8432663361814172
154,661,Uncued,154,0,2,2,524,1,0.82823626800071,0.17176373199928996
155,661,Uncued,155,0,1,1,340,2,0.14916576414066207,0.8508342358593379
156,661,Uncued,156,0,2,2,497,1,0.6503348533650284,0.34966514663497156
157,661,Uncued,157,0,2,2,483,2,0.31669355974286006,0.6833064402571399
158,661,Uncued,158,0,2,2,534,2,0.46612993019317706,0.5338700698068229
159,661,Uncued,159,0,1,1,465,2,0.3143649888696265,0.6856350111303735
160,661,Uncued,160,0,1,1,460,1,0.5783936212203935,0.4216063787796065
161,661,Uncued,161,0,1,1,440,2,0.4585181736976489,0.5414818263023511
162,661,Uncued,162,0,1,1,433,1,0.7840909294049675,0.2159090705950325
163,661,Uncued,163,0,2,2,414,2,0.16959061219595795,0.830409387804042
164,661,Uncued,164,0,1,1,426,1,0.5762330753151452,0.4237669246848547
165,661,Uncued,165,0,1,1,413,2,0.4825154662842873,0.5174845337157127
166,661,Uncued,166,0,1,1,392,1,0.8782719575305658,0.12172804246943421
167,661,Uncued,167,0,2,2,452,1,0.5187040726273843,0.48129592737261573
168,661,Uncued,168,0,1,1,398,2,0.47369812453426563,0.5263018754657344
169,661,Uncued,169,0,2,2,489,1,0.856741726258242,0.14325827374175804
170,661,Uncued,170,0,1,1,354,2,0.2657603318830406,0.7342396681169594
171,661,Uncued,171,0,2,2,503,1,0.5753237949471801,0.42467620505281983
172,661,Uncued,172,0,2,2,502,2,0.45326220498818426,0.5467377950118157
173,661,Uncued,173,0,2,2,467,2,0.2574707625893383,0.7425292374106617
174,661,Uncued,174,0,1,1,560,2,0.3611253896029344,0.6388746103970656
175,661,Uncued,175,0,1,1,414,2,0.4727624608718267,0.5272375391281733
176,661,Uncued,176,0,1,1,325,2,0.3431280617847168,0.6568719382152832
177,661,Uncued,177,0,2,2,450,2,0.18978236041214214,0.8102176395878579
178,661,Uncued,178,0,1,1,353,2,0.3071185799732761,0.6928814200267239
179,661,Uncued,179,0,1,1,385,1,0.7385590962447424,0.2614409037552576
0,959,Uncued,0,0,1,1,502,2,0.18586994586534267,0.8141300541346573
1,959,Uncued,1,0,1,1,456,1,0.5716214847904066,0.4283785152095934
2,959,Uncued,2,0,1,1,403,1,0.7827144903538212,0.21728550964617876
3,959,Uncued,3,0,1,1,546,1,0.7312364489776134,0.2687635510223866
4,959,Uncued,4,0,1,1,487,1,0.728971832305612,0.271028167694388
5,959,Uncued,5,0,2,2,492,1,0.5355712247133595,0.46442877528664045
6,959,Uncued,6,0,2,2,536,1,0.5785063785253561,0.42149362147464386
7,959,Uncued,7,0,1,1,526,1,0.6565737748217362,0.3434262251782638
8,959,Uncued,8,0,1,1,365,1,0.7551621259921304,0.2448378740078696
9,959,Uncued,9,0,1,1,417,2,0.22614860624493105,0.773851393755069
10,959,Uncued,10,0,2,1,505,2,0.35555369170959195,0.644446308290408
11,959,Uncued,11,0,2,2,656,2,0.32111076666605254,0.6788892333339475
12,959,Uncued,12,0,1,1,482,2,0.24464559022203713,0.7553544097779629
13,959,Uncued,13,0,2,1,611,2,0.4935000357365077,0.5064999642634923
14,959,Uncued,14,0,1,1,516,2,0.1760294841870721,0.8239705158129279
15,959,Uncued,15,0,1,1,610,2,0.012828346020907433,0.9871716539790926
16,959,Uncued,16,0,1,1,533,1,0.5755391907819888,0.4244608092180112
17,959,Uncued,17,0,2,2,561,1,0.6658869253848387,0.3341130746151613
18,959,Uncued,18,0,1,1,574,1,0.8402573797276156,0.15974262027238445
19,959,Uncued,19,0,1,1,515,2,0.19570469649913447,0.8042953035008655
20,959,Uncued,20,0,2,2,610,2,0.27471719475751544,0.7252828052424846
21,959,Uncued,21,0,2,2,573,2,0.43920234329301155,0.5607976567069884
22,959,Uncued,22,0,1,1,566,1,0.7525788822098669,0.2474211177901331
23,959,Uncued,23,0,2,2,498,2,0.3791523680550398,0.6208476319449602
24,959,Uncued,24,0,2,2,448,2,0.4285338699955684,0.5714661300044316
25,959,Uncued,25,0,1,1,386,1,0.6461948520646554,0.3538051479353446
26,959,Uncued,26,0,1,1,493,1,0.7515318228327297,0.24846817716727032
27,959,Uncued,27,0,1,1,486,2,0.22894267199547458,0.7710573280045254
28,959,Uncued,28,0,1,1,508,2,0.36602682756877525,0.6339731724312248
29,959,Uncued,29,0,2,2,483,1,0.5013560897659066,0.4986439102340933
30,959,Uncued,30,0,1,1,491,2,0.28062733246263305,0.719372667537367
31,959,Uncued,31,0,2,2,473,2,0.3978227045066888,0.6021772954933112
32,959,Uncued,32,0,1,1,445,1,0.7488945760657912,0.2511054239342088
33,959,Uncued,33,0,1,1,542,2,0.08804269267385478,0.9119573073261452
34,959,Uncued,34,0,1,1,524,2,0.11065092503503526,0.8893490749649647
35,959,Uncued,35,0,1,1,502,2,0.2989772473493436,0.7010227526506564
36,959,Uncued,36,0,1,1,498,1,0.7713576275880879,0.2286423724119121
37,959,Uncued,37,0,2,2,575,1,0.7491688367174699,0.2508311632825301
38,959,Uncued,38,0,1,1,500,1,0.7144479180885875,0.28555208191141246
39,959,Uncued,39,0,1,1,478,1,0.7969221888214404,0.20307781117855955
40,959,Uncued,40,0,2,2,511,1,0.751454407285804,0.24854559271419593
41,959,Uncued,41,0,2,2,602,1,0.6807188661416561,0.3192811338583439
42,959,Uncued,42,0,2,2,587,2,0.2951677511792927,0.7048322488207073
43,959,Uncued,43,0,2,2,531,1,0.6415193682481299,0.35848063175187006
44,959,Uncued,44,0,1,1,555,2,0.4222419895046291,0.5777580104953709
45,959,Uncued,45,0,1,1,511,2,0.24318883125261903,0.756811168747381
46,959,Uncued,46,0,2,2,461,1,0.8788805013497729,0.12111949865022706
47,959,Uncued,47,0,1,1,451,2,0.3978840245741849,0.6021159754258151
48,959,Uncued,48,0,1,1,442,2,0.2886269377797157,0.7113730622202843
49,959,Uncued,49,0,1,1,481,1,0.6886232892962105,0.31137671070378947
50,959,Uncued,50,0,1,1,597,2,0.32408728864780767,0.6759127113521923
51,959,Uncued,51,0,2,2,468,2,0.44255459124468133,0.5574454087553187
52,959,Uncued,52,0,2,2,579,2,0.19378770250778543,0.8062122974922146
53,959,Uncued,53,0,1,1,576,2,0.3511739772546304,0.6488260227453696
54,959,Uncued,54,0,1,1,519,1,0.5421239706010763,0.4578760293989237
55,959,Uncued,55,0,2,2,430,2,0.17872089197269792,0.8212791080273021
56,959,Uncued,56,0,1,1,454,1,0.8459520942561372,0.1540479057438628
57,959,Uncued,57,0,2,2,494,2,0.340159499333474,0.659840500666526
58,959,Uncued,58,0,1,1,591,1,0.792630170527735,0.20736982947226504
59,959,Uncued,59,0,1,1,451,1,0.5975918547685122,0.4024081452314879
60,959,Uncued,60,0,2,2,822,2,0.32378094002353497,0.676219059976465
61,959,Uncued,61,0,1,1,401,1,0.6984287004666241,0.3015712995333759
62,959,Uncued,62,0,2,2,563,1,0.8417443906930353,0.15825560930696472
63,959,Uncued,63,0,1,1,433,1,0.7718385459422069,0.22816145405779312
64,959,Uncued,64,0,1,1,411,1,0.5926825167237191,0.407317483276281
65,959,Uncued,65,0,1,1,471,2,0.38796918794343915,0.6120308120565608
66,959,Uncued,66,0,1,1,447,1,0.7152316439324315,0.2847683560675684
67,959,Uncued,67,0,2,2,403,2,0.3715799553446868,0.6284200446553132
68,959,Uncued,68,0,2,2,455,2,0.21786235013524013,0.7821376498647599
69,959,Uncued,69,0,1,1,448,1,0.842188002712803,0.15781199728719694
70,959,Uncued,70,0,1,1,490,2,0.44125490851925353,0.5587450914807465
71,959,Uncued,71,0,1,1,545,1,0.6486552835217505,0.35134471647824955
72,959,Uncued,72,0,1,1,503,1,0.8617082345300136,0.13829176546998642
73,959,Uncued,73,0,1,1,551,1,0.6034553423394171,0.39654465766058283
74,959,Uncued,74,0,1,1,472,2,0.14197084400418536,0.8580291559958146
75,959,Uncued,75,0,2,2,440,1,0.6540401273654617,0.34595987263453826
76,959,Uncued,76,0,1,1,446,1,0.5276543064034417,0.4723456935965583
77,959,Uncued,77,0,2,2,640,2,0.11670695701643186,0.8832930429835681
78,959,Uncued,78,0,1,1,504,1,0.5304985468260719,0.4695014531739281
79,959,Uncued,79,0,1,1,478,2,0.3158800118241164,0.6841199881758836
80,959,Uncued,80,0,2,2,443,2,0.35782709892166575,0.6421729010783342
81,959,Uncued,81,0,1,1,513,1,0.6165109814834808,0.3834890185165191
82,959,Uncued,82,0,2,2,497,1,0.7244647812029169,0.2755352187970831
83,959,Uncued,83,0,2,2,465,1,0.5490517510109989,0.45094824898900104
84,959,Uncued,84,0,1,1,432,2,0.36196755035511663,0.6380324496448834
85,959,Uncued,85,0,1,1,490,2,0.11261683519187948,0.8873831648081205
86,959,Uncued,86,0,1,1,420,1,0.9478245866504288,0.052175413349571244
87,959,Uncued,87,0,2,2,627,1,0.6439510642813915,0.35604893571860846
88,959,Uncued,88,0,1,1,409,1,0.768673471204943,0.23132652879505697
89,959,Uncued,89,0,2,2,431,2,0.11366465441828966,0.8863353455817103
90,959,Uncued,90,0,1,1,472,2,0.33749438895271167,0.6625056110472883
91,959,Uncued,91,0,2,2,425,1,0.8499238369622875,0.1500761630377125
92,959,Uncued,92,0,2,2,515,1,0.7494727226350806,0.2505272773649194
93,959,Uncued,93,0,2,2,525,2,0.3887472880529974,0.6112527119470026
94,959,Uncued,94,0,2,2,462,1,0.5560821939950082,0.44391780600499176
95,959,Uncued,95,0,2,2,521,1,0.6999612562601052,0.3000387437398948
96,959,Uncued,96,0,2,2,473,1,0.9039325982921176,0.09606740170788242
97,959,Uncued,97,0,2,2,533,1,0.6032552250542516,0.3967447749457484
98,959,Uncued,98,0,1,1,411,2,0.04803278112920506,0.9519672188707949
99,959,Uncued,99,0,2,2,810,2,0.42274117295002256,0.5772588270499774
100,959,Uncued,100,0,1,1,414,2,0.3233005537965802,0.6766994462034198
101,959,Uncued,101,0,1,1,456,2,0.18754931391688534,0.8124506860831147
102,959,Uncued,102,0,2,2,749,2,0.042519300665551873,0.9574806993344481
103,959,Uncued,103,0,1,1,535,1,0.6878922816181869,0.31210771838181306
104,959,Uncued,104,0,1,1,613,2,0.464871723679798,0.535128276320202
105,959,Uncued,105,0,1,1,470,1,0.5043698266358965,0.4956301733641035
106,959,Uncued,106,0,1,1,469,1,0.7292863399820304,0.27071366001796954
107,959,Uncued,107,0,2,2,527,2,0.12313108875139966,0.8768689112486003
108,959,Uncued,108,0,2,2,510,1,0.8435927824340116,0.15640721756598838
109,959,Uncued,109,0,2,2,644,2,0.44749511578247203,0.552504884217528
110,959,Uncued,110,0,1,1,563,2,0.2062935190915497,0.7937064809084503
111,959,Uncued,111,0,2,2,525,2,0.3793866269026034,0.6206133730973966
112,959,Uncued,112,0,1,1,465,2,0.2861837810452249,0.7138162189547751
113,959,Uncued,113,0,2,2,433,2,0.3641072271407183,0.6358927728592817
114,959,Uncued,114,0,2,2,563,2,0.24410695930128024,0.7558930406987198
115,959,Uncued,115,0,2,2,504,1,0.7318614563581889,0.2681385436418111
116,959,Uncued,116,0,2,2,494,2,0.36122046021040355,0.6387795397895965
117,959,Uncued,117,0,2,2,461,1,0.5464150760313644,0.4535849239686356
118,959,Uncued,118,0,2,2,506,2,0.3612214494340722,0.6387785505659278
119,959,Uncued,119,0,1,1,497,1,0.6260404232113723,0.3739595767886277
120,959,Uncued,120,0,1,1,541,2,0.2548616451182434,0.7451383548817566
121,959,Uncued,121,0,2,2,540,1,0.5072765830668782,0.4927234169331219
122,959,Uncued,122,0,1,1,448,1,0.8596473393981017,0.14035266060189827
123,959,Uncued,123,0,1,1,418,1,0.529319515995111,0.47068048400488904
124,959,Uncued,124,0,1,1,492,1,0.7752953601214427,0.2247046398785572
125,959,Uncued,125,0,1,1,410,1,0.6781927603465889,0.3218072396534111
126,959,Uncued,126,0,1,1,481,1,0.8605531514001682,0.13944684859983178
127,959,Uncued,127,0,1,1,400,2,0.4464364323498763,0.5535635676501237
128,959,Uncued,128,0,2,2,485,2,0.15743148407794094,0.8425685159220591
129,959,Uncued,129,0,2,2,533,2,0.1759323254146371,0.8240676745853629
130,959,Uncued,130,0,1,1,476,2,0.3173518704342412,0.6826481295657588
131,959,Uncued,131,0,1,1,492,1,0.8322222414804343,0.1677777585195656
132,959,Uncued,132,0,2,2,532,1,0.5545014299707138,0.44549857002928617
133,959,Uncued,133,0,2,2,515,1,0.6520212467806792,0.3479787532193208
134,959,Uncued,134,0,2,2,530,2,0.3934609742771228,0.6065390257228772
135,959,Uncued,135,0,1,1,455,1,0.5392326705223409,0.4607673294776591
136,959,Uncued,136,0,2,2,493,1,0.815508182432114,0.184491817567886
137,959,Uncued,137,0,2,2,463,2,0.1758021931606033,0.8241978068393967
138,959,Uncued,138,0,2,2,492,1,0.6910513606024254,0.30894863939757455
139,959,Uncued,139,0,2,2,540,2,0.24036863696731003,0.75963136303269
140,959,Uncued,140,0,1,1,473,2,0.07431587268858897,0.925684127311411
141,959,Uncued,141,0,2,2,480,2,0.10102007875597274,0.8989799212440273
142,959,Uncued,142,0,1,1,481,1,0.779625100171063,0.220374899828937
143,959,Uncued,143,0,2,2,465,2,0.21739139579554823,0.7826086042044518
144,959,Uncued,144,0,2,2,574,2,0.18167802856546333,0.8183219714345367
145,959,Uncued,145,0,2,2,590,2,0.46969525104318854,0.5303047489568115
146,959,Uncued,146,0,1,1,442,1,0.7843712765126483,0.2156287234873518
147,959,Uncued,147,0,1,1,519,1,0.5679297851052223,0.43207021489477776
148,959,Uncued,148,0,2,2,526,1,0.6971105199458423,0.3028894800541578
149,959,Uncued,149,0,2,2,461,2,0.14652216494002512,0.8534778350599749
150,959,Uncued,150,0,2,2,487,1,0.8826013983088689,0.11739860169113116
151,959,Uncued,151,0,2,2,518,1,0.8054278206244464,0.19457217937555357
152,959,Uncued,152,0,2,2,521,2,0.14486145181798238,0.8551385481820176
153,959,Uncued,153,0,1,1,455,2,0.22336961780065856,0.7766303821993414
154,959,Uncued,154,0,2,2,534,2,0.30319237154414536,0.6968076284558546
155,959,Uncued,155,0,1,1,517,2,0.1801993286696929,0.8198006713303071
156,959,Uncued,156,0,2,2,507,2,0.2609069086552396,0.7390930913447604
157,959,Uncued,157,0,2,2,562,1,0.6814693952802404,0.31853060471975964
158,959,Uncued,158,0,2,2,503,1,0.8596757983625013,0.14032420163749873
159,959,Uncued,159,0,2,2,473,1,0.5072434138740373,0.49275658612596274
160,959,Uncued,160,0,2,2,505,2,0.44161020444336807,0.5583897955566319
161,959,Uncued,161,0,2,2,509,2,0.07062070945584409,0.9293792905441559
162,959,Uncued,162,0,2,2,505,1,0.5377330946682704,0.4622669053317297
163,959,Uncued,163,0,2,2,592,2,0.3105162981595875,0.6894837018404125
164,959,Uncued,164,0,2,2,484,2,0.1143822102149542,0.8856177897850458
165,959,Uncued,165,0,1,1,468,2,0.052197682645073296,0.9478023173549267
166,959,Uncued,166,0,1,1,600,1,0.7064830352281373,0.2935169647718628
167,959,Uncued,167,0,2,2,467,1,0.6893576189493851,0.31064238105061487
168,959,Uncued,168,0,2,2,525,1,0.7480081674587481,0.2519918325412519
169,959,Uncued,169,0,2,2,484,2,0.3108458833549953,0.6891541166450047
170,959,Uncued,170,0,1,1,542,1,0.9094419613916449,0.0905580386083551
171,959,Uncued,171,0,1,1,601,2,0.49438963979468553,0.5056103602053145
172,959,Uncued,172,0,2,2,533,1,0.6361447758232248,0.36385522417677524
173,959,Uncued,173,0,2,2,602,1,0.5236544655508517,0.4763455344491483
174,959,Uncued,174,0,1,1,502,2,0.1827031035653589,0.8172968964346411
175,959,Uncued,175,0,1,1,485,2,0.2294180008203378,0.7705819991796622
176,959,Uncued,176,0,1,1,509,1,0.8899465722035176,0.11005342779648239
177,959,Uncued,177,0,2,2,464,2,0.49283355296910714,0.5071664470308929
178,959,Uncued,178,0,2,2,549,2,0.12665423365305628,0.8733457663469437
179,959,Uncued,179,0,1,1,403,2,0.37909461848303205,0.620905381516968
0,205,Uncued,0,0,2,2,575,1,0.575747906745629,0.424252093254371
1,205,Uncued,1,0,1,1,491,2,0.3370413332729719,0.6629586667270281
2,205,Uncued,2,0,1,1,494,2,0.4476620472993018,0.5523379527006982
3,205,Uncued,3,0,2,2,570,1,0.8262177581478247,0.17378224185217528
4,205,Uncued,4,0,1,1,486,2,0.4842534730131256,0.5157465269868744
5,205,Uncued,5,0,1,1,538,2,0.22971231509867307,0.7702876849013269
6,205,Uncued,6,0,2,2,453,1,0.7766073587719532,0.2233926412280468
7,205,Uncued,7,0,2,2,719,1,0.8388127191498751,0.16118728085012496
8,205,Uncued,8,0,2,2,616,1,0.7440592550000098,0.2559407449999902
9,205,Uncued,9,0,2,2,526,2,0.09566159153922871,0.9043384084607713
10,205,Uncued,10,0,2,2,511,1,0.7688429081188405,0.23115709188115952
11,205,Uncued,11,0,1,1,567,2,0.2199984927988229,0.7800015072011771
12,205,Uncued,12,0,2,2,645,1,0.9238665410249396,0.07613345897506038
